timestamp,ax,ay,az,gx,gy,gz,label
0,0.0149,0.0867,1.0097,5.4138,-0.1054,2.3298,1
20,0.1220,0.1056,1.0026,4.7901,0.3165,2.2535,1
40,0.1518,0.0329,0.9924,4.0213,0.5782,2.4670,1
60,0.1781,0.0317,1.0469,4.0485,1.5413,1.9114,1
80,0.2370,0.0509,1.0117,4.1688,1.6709,2.2042,1
100,0.2673,0.0723,1.0297,3.0059,2.6817,1.8652,1
120,0.3057,-0.0414,1.0078,3.3985,2.9429,2.2100,1
140,0.2912,-0.0241,1.0004,2.4365,2.6217,2.3906,1
160,0.2818,-0.0806,1.0200,2.1802,2.6554,2.1600,1
180,0.2621,-0.0350,0.9934,1.7305,3.1488,2.1610,1
200,0.1620,-0.0773,0.9796,0.6729,3.3125,2.1564,1
220,0.1083,-0.0596,0.9923,0.4561,2.9656,2.0822,1
240,0.0365,-0.0517,0.9396,0.7757,2.6118,1.3932,1
260,-0.0348,-0.1370,0.9699,-0.0683,2.9278,1.1810,1
280,-0.1347,-0.0957,0.9840,-0.6460,1.6447,1.3365,1
300,-0.1734,-0.0496,0.9600,-1.5872,1.2688,0.5828,1
320,-0.2223,-0.0511,0.9740,-2.0568,0.3259,0.7292,1
340,-0.2817,-0.0576,0.9776,-2.1688,1.2995,0.7364,1
360,-0.2870,-0.0187,0.9595,-2.8843,-0.0483,1.2478,1
380,-0.3052,0.0129,0.9972,-3.9816,-0.0849,0.5563,1
400,-0.2616,0.0060,1.0285,-4.4817,-0.8403,0.8078,1
420,-0.2830,0.0346,1.0179,-4.2455,-2.2733,-0.0096,1
440,-0.2372,0.0770,1.0098,-3.2540,-2.3505,-0.3075,1
460,-0.1201,0.0493,1.0317,-3.5743,-3.0822,-0.3349,1
480,-0.0668,0.1059,1.0114,-5.2568,-2.4120,-0.4785,1
500,0.0075,0.0983,1.0183,-4.3606,-2.7213,-0.9559,1
520,0.1306,0.0985,1.0062,-4.0706,-3.4100,-0.6753,1
540,0.1793,0.0592,1.0315,-4.1110,-2.6279,-0.5071,1
560,0.1980,0.0475,0.9948,-4.6735,-2.9665,-1.1323,1
580,0.2616,0.0681,0.9987,-3.0713,-2.8943,-0.5701,1
600,0.3041,0.0072,0.9729,-3.3511,-2.6335,-1.3156,1
620,0.3136,0.0039,0.9679,-4.1893,-2.4135,-1.4078,1
640,0.3011,-0.0468,0.9769,-2.6372,-2.2215,-1.7441,1
660,0.2732,-0.0658,0.9760,-2.0747,-0.8914,-1.5894,1
680,0.1898,-0.0799,0.9779,-1.6077,-0.6594,-0.8542,1
700,0.1935,-0.0456,0.9872,-0.9997,-0.5179,-1.8754,1
720,0.0873,-0.0894,0.9711,-0.7941,1.1923,-2.7444,1
740,0.0582,-0.1280,0.9791,0.3708,0.7017,-2.5763,1
760,-0.0591,-0.0730,0.9845,0.4124,1.1946,-2.5043,1
780,-0.0461,-0.0685,0.9749,0.9551,1.3414,-2.0959,1
800,-0.2001,-0.0756,1.0220,1.9100,1.5135,-2.4814,1
820,-0.2454,-0.0730,1.0486,2.1590,1.8373,-2.1216,1
840,-0.2078,-0.0135,1.0047,2.1207,3.2516,-2.6115,1
860,-0.2814,0.0017,1.0160,2.8327,1.4170,-2.6952,1
880,-0.3070,-0.0243,1.0536,2.4223,2.7828,-2.3237,1
900,-0.2421,-0.0066,1.0428,3.6467,2.5524,-2.1860,1
920,-0.2473,0.0338,1.0199,3.7122,2.9660,-2.0744,1
940,-0.1578,0.0359,1.0423,3.0127,2.6774,-2.0321,1
960,-0.1361,0.0639,0.9976,4.0628,2.2266,-1.8766,1
980,-0.0639,0.0705,1.0046,4.6489,2.5267,-1.8535,1
1000,-0.0249,0.0766,0.9936,4.8662,1.7540,-1.9064,1
1020,0.1129,0.0730,0.9837,4.3432,1.2134,-1.5002,1
1040,0.1693,0.0984,0.9908,4.3712,1.1257,-1.8008,1
1060,0.2151,0.0625,0.9715,4.5411,-0.0671,-0.9481,1
1080,0.2231,0.0191,0.9893,4.4184,0.0549,-1.2465,1
1100,0.2849,0.0063,0.9780,3.2343,-0.3073,-1.3301,1
1120,0.2746,-0.0021,0.9904,2.9421,-1.6131,-1.0566,1
1140,0.3020,-0.0290,0.9862,3.0076,-2.3534,-1.3892,1
1160,0.2499,-0.0434,1.0077,3.2964,-1.7220,-0.8467,1
1180,0.2306,-0.0814,1.0122,1.7428,-2.3038,-0.8742,1
1200,0.1919,-0.0360,1.0189,1.6316,-2.4039,-0.5701,1
1220,0.1172,-0.0834,1.0279,0.3794,-2.8851,-0.1215,1
1240,0.0811,-0.0663,1.0619,-0.1779,-2.5959,-0.0355,1
1260,0.0281,-0.1087,1.0170,-0.6422,-3.9442,-0.0673,1
1280,-0.1332,-0.0801,1.0316,0.2825,-2.4685,0.0978,1
1300,-0.2033,-0.0610,1.0007,-0.2917,-2.1837,0.3090,1
1320,-0.2825,-0.0249,1.0107,-1.1733,-3.1665,0.4462,1
1340,-0.2713,-0.0372,0.9963,-2.0375,-2.5884,0.7561,1
1360,-0.2911,-0.0045,1.0039,-3.5432,-2.3922,1.3503,1
1380,-0.2894,-0.0123,1.0075,-3.2110,-0.7124,1.1499,1
1400,-0.2235,0.0699,0.9732,-3.0576,-0.4557,1.6966,1
1420,-0.2822,0.0647,0.9878,-4.9986,-0.7584,0.8232,1
1440,-0.2134,0.0828,0.9926,-4.1395,1.0340,1.1618,1
1460,-0.1956,0.0775,0.9770,-4.3782,-0.1115,1.6809,1
1480,-0.1137,0.1032,0.9810,-5.0284,1.0801,1.5121,1
1500,-0.0019,0.1129,0.9676,-4.1976,1.5247,1.7038,1
1520,0.0714,0.0623,0.9828,-5.1832,3.0451,2.0530,1
1540,0.1235,0.0840,0.9991,-4.4912,2.7682,2.3588,1
1560,0.1894,0.0518,1.0062,-5.5651,2.0639,2.6186,1
1580,0.3026,0.0422,1.0275,-3.7566,4.3004,2.6089,1
1600,0.2815,0.0049,1.0012,-3.5185,2.6537,1.8979,1
1620,0.2800,-0.0203,1.0545,-2.7514,2.9772,2.8069,1
1640,0.2970,-0.0375,1.0527,-2.5451,2.4088,2.3308,1
1660,0.2452,-0.0715,1.0413,-1.2656,2.0522,2.5681,1
1680,0.2116,-0.0691,1.0132,-2.4344,2.4265,2.1477,1
1700,0.1844,-0.0740,1.0109,-1.9351,1.7941,2.6077,1
1720,0.1255,-0.1071,1.0067,-0.3924,0.8880,2.5147,1
1740,0.0177,-0.0756,0.9840,-1.3655,0.4417,2.3233,1
1760,-0.0298,-0.1110,0.9958,-0.7144,0.6431,1.8897,1
1780,-0.1300,-0.0825,0.9655,0.6125,0.6036,2.0112,1
1800,-0.1513,-0.0999,0.9808,2.2555,-1.4882,1.8641,1
1820,-0.2138,-0.0622,0.9758,1.5536,-0.8522,1.9634,1
1840,-0.2364,-0.0322,0.9757,2.1641,-1.5982,1.7758,1
1860,-0.2829,-0.0270,0.9786,4.1136,-1.4318,1.6925,1
1880,-0.2634,-0.0041,0.9500,2.6755,-3.0544,1.5593,1
1900,-0.2848,0.0680,0.9939,3.5091,-2.1598,0.8665,1
1920,-0.2462,0.0667,0.9763,4.6296,-2.6229,1.2616,1
1940,-0.1864,0.1201,1.0109,4.3329,-3.1385,0.9797,1
1960,-0.1196,0.0583,1.0181,4.0720,-2.7823,1.1762,1
1980,-0.0435,0.0749,1.0200,3.8773,-3.1713,1.0247,1
2000,0.0227,0.0679,1.0416,5.3134,-2.6671,1.3047,1
2020,0.0514,0.0573,1.0033,5.3621,-2.3524,0.5509,1
2040,0.1529,0.0519,1.0650,4.4362,-2.3096,0.6081,1
2060,0.2198,0.0710,1.0117,4.4669,-1.1511,0.6145,1
2080,0.3011,0.0360,1.0015,3.8679,-1.5504,0.3584,1
2100,0.2345,0.0645,1.0051,3.3844,-1.5598,-0.6472,1
2120,0.3241,0.0074,0.9784,2.5033,-0.7502,0.1700,1
2140,0.2869,-0.0529,0.9846,2.7048,-1.2890,-0.5251,1
2160,0.2645,-0.0216,1.0078,3.0872,0.3297,-1.0160,1
2180,0.3084,-0.0559,0.9741,1.9015,1.0520,-0.8987,1
2200,0.1591,-0.0859,0.9700,1.0645,1.1245,-0.9899,1
2220,0.1028,-0.0476,0.9305,1.4981,2.4438,-1.8046,1
2240,0.0273,-0.0982,0.9521,-0.1841,1.7630,-0.8108,1
2260,-0.0095,-0.0588,0.9897,-0.9600,2.3365,-1.3361,1
2280,-0.1471,-0.0666,0.9833,-1.0681,3.1229,-1.4875,1
2300,-0.1872,-0.0450,0.9800,-1.0210,3.2138,-1.8424,1
2320,-0.2214,-0.0874,1.0199,-2.0269,2.7645,-1.5536,1
2340,-0.2926,-0.0721,0.9918,-2.0476,2.3839,-1.4500,1
2360,-0.3571,0.0239,1.0258,-2.9264,2.5838,-1.9537,1
2380,-0.3005,0.0321,1.0295,-3.1902,2.4469,-2.1757,1
2400,-0.2761,-0.0132,1.0097,-3.1946,2.3884,-2.2867,1
2420,-0.2527,0.0566,1.0209,-4.4104,2.0293,-2.5852,1
2440,-0.1931,0.0247,1.0404,-3.9004,1.6261,-2.0441,1
2460,-0.0946,0.1032,0.9906,-5.1264,0.7528,-2.3649,1
2480,-0.0591,0.0698,1.0124,-4.9177,0.2499,-2.8152,1
2500,-0.0277,0.0576,0.9854,-3.8678,-0.4272,-1.6103,1
2520,0.0894,0.0916,0.9775,-4.0443,-0.7841,-2.3566,1
2540,0.2213,0.0766,0.9990,-4.7805,-1.0497,-1.8415,1
2560,0.1866,0.1091,0.9857,-4.5215,-1.2263,-2.0471,1
2580,0.2720,0.0105,0.9601,-4.0919,-1.9747,-2.1055,1
2600,0.2906,-0.0042,0.9758,-3.2742,-2.0596,-1.9072,1
2620,0.3244,0.0167,0.9712,-4.2769,-2.4172,-2.0963,1
2640,0.3028,-0.0475,0.9612,-2.2365,-2.8468,-1.8690,1
2660,0.2723,-0.0376,0.9990,-2.7208,-2.9168,-2.1152,1
2680,0.2181,-0.0648,0.9973,-2.2033,-2.4347,-2.1367,1
2700,0.1707,-0.0834,1.0255,-1.2726,-2.4825,-2.1952,1
2720,0.1184,-0.0623,1.0143,-0.2039,-3.0358,-1.1980,1
2740,0.1066,-0.0980,1.0144,0.5895,-1.8618,-1.6397,1
2760,-0.0502,-0.0961,1.0066,-0.2686,-2.7146,-1.5668,1
2780,-0.1115,-0.0781,1.0530,0.2442,-1.4401,-1.2467,1
2800,-0.1778,-0.0566,1.0126,1.6200,-1.3704,-0.8741,1
2820,-0.2225,0.0016,1.0165,1.5974,-1.2432,-1.0220,1
2840,-0.2906,-0.0098,1.0413,2.0688,-0.8252,-0.5426,1
2860,-0.3113,-0.0017,1.0148,1.9590,0.7718,0.0299,1
2880,-0.3178,-0.0037,1.0065,3.4810,0.8955,0.2724,1
2900,-0.2906,0.0087,0.9718,3.2020,1.0895,0.3877,1
2920,-0.2688,0.0536,0.9834,4.6564,2.7126,-0.1291,1
2940,-0.2200,0.0907,0.9866,5.2920,2.2608,0.1031,1
2960,-0.1268,0.1055,0.9840,4.6630,2.8389,0.7411,1
2980,-0.0331,0.1027,0.9675,4.5525,3.1898,0.3225,1
3000,0.0111,0.0806,0.9719,5.2671,2.9392,0.7556,1
3020,0.0338,0.1051,0.9856,5.7625,2.8329,0.9772,1
3040,0.1520,0.1167,0.9816,4.5260,3.2714,1.1321,1
3060,0.1920,0.0703,1.0079,3.5681,2.9916,1.0246,1
3080,0.2891,0.0117,0.9931,4.1697,3.4797,1.3664,1
3100,0.2687,0.0730,0.9893,2.3213,2.7310,1.3792,1
3120,0.2688,0.0227,1.0231,2.9419,1.6364,1.9265,1
3140,0.3142,-0.0192,1.0534,2.2264,1.1373,1.5827,1
3160,0.2701,-0.0325,1.0257,2.6225,0.8155,2.3387,1
3180,0.2287,-0.0306,1.0349,2.1901,1.1475,2.1444,1
3200,0.1956,-0.0409,1.0301,1.8160,0.3356,2.5352,1
3220,0.0901,-0.0405,1.0210,-0.0152,-0.0931,1.9799,1
3240,0.0628,-0.1050,1.0071,-0.8512,-0.8764,1.5258,1
3260,-0.0851,-0.0710,1.0163,-0.0273,-1.6093,2.2946,1
3280,-0.1105,-0.1115,1.0173,-0.3168,-1.7386,2.3597,1
3300,-0.1701,-0.1218,0.9818,-1.7998,-2.5044,2.2967,1
3320,-0.1772,-0.0420,0.9693,-1.5725,-1.7750,2.6744,1
3340,-0.2697,-0.0538,0.9830,-2.1751,-2.2787,2.5898,1
3360,-0.2632,-0.0297,0.9899,-2.7498,-1.9417,2.1811,1
3380,-0.2473,0.0104,0.9611,-3.5707,-3.1250,2.4902,1
3400,-0.2696,0.0140,0.9743,-2.3552,-2.2167,2.4555,1
3420,-0.2522,0.0511,0.9904,-4.5571,-3.0307,1.7725,1
3440,-0.1934,0.0811,0.9824,-3.2396,-3.2973,1.7692,1
3460,-0.1378,0.1040,1.0245,-4.6340,-2.0064,2.1200,1
3480,-0.0798,0.1084,1.0187,-5.4104,-1.4965,2.4564,1
3500,-0.0188,0.0995,1.0250,-4.3436,-2.0110,1.7402,1
3520,0.0738,0.1153,1.0326,-4.6869,-0.9641,0.9753,1
3540,0.1790,0.0371,1.0233,-5.0304,-1.4015,2.0559,1
3560,0.1913,0.0739,1.0293,-3.8978,-0.2665,1.1909,1
3580,0.2832,0.0364,1.0047,-4.2002,0.9013,1.6900,1
3600,0.2749,0.0194,1.0183,-2.3945,0.9179,1.4150,1
3620,0.3303,0.0114,1.0119,-3.3982,1.2109,1.1185,1
3640,0.3165,-0.0156,1.0177,-2.9168,1.7372,0.3675,1
3660,0.2989,-0.0300,1.0120,-4.1490,3.0477,0.7569,1
3680,0.2644,-0.0823,0.9968,-2.5481,2.1683,1.2002,1
3700,0.1706,-0.0676,0.9925,-1.0932,2.7822,0.5592,1
3720,0.1825,-0.0851,0.9765,-0.2128,3.3936,0.6270,1
3740,0.0568,-0.1167,0.9949,-0.9704,3.1246,-0.1358,1
3760,-0.0395,-0.0814,0.9752,0.5357,3.7146,0.0456,1
3780,-0.1178,-0.0605,0.9914,0.1067,3.1650,-0.0605,1
3800,-0.1853,-0.0398,0.9772,1.4659,2.6366,-0.4450,1
3820,-0.2640,-0.0919,1.0115,1.4078,2.0029,-1.2720,1
3840,-0.2906,-0.0701,1.0216,3.0171,1.7983,-0.1230,1
3860,-0.2652,-0.0247,0.9692,4.2430,1.0765,-1.4606,1
3880,-0.2687,0.0642,1.0365,3.6187,1.5108,-0.8737,1
3900,-0.2625,0.0346,1.0247,3.6030,0.4068,-1.3702,1
3920,-0.3041,0.0459,1.0132,3.2812,0.3069,-1.0174,1
3940,-0.1778,0.0279,1.0151,4.7485,-0.7432,-1.6432,1
3960,-0.1280,0.0556,1.0303,3.5582,-1.0895,-1.6118,1
3980,-0.1224,0.0977,1.0242,4.7960,-1.2106,-1.4206,1
4000,0.0038,0.0797,1.0195,4.8260,-1.7414,-1.9295,1
4019,0.0535,0.0713,0.9879,5.5143,-2.7207,-2.2503,1
4040,0.1230,0.1003,0.9948,5.1073,-2.7949,-2.0478,1
4059,0.1803,0.1171,0.9718,4.3699,-2.4605,-2.0844,1
4080,0.2477,0.0451,0.9818,3.8552,-2.4811,-1.6099,1
4100,0.2686,-0.0051,0.9733,5.1884,-3.3557,-1.8329,1
4120,0.3497,-0.0076,0.9794,4.2574,-3.1514,-2.4240,1
4140,0.2772,-0.0412,0.9604,2.1340,-2.8602,-2.6189,1
4160,0.2785,-0.0757,0.9775,2.9113,-3.5787,-2.2870,1
4180,0.2680,-0.0864,1.0030,2.1674,-2.7220,-2.4137,1
4200,0.1931,-0.0710,0.9936,0.8382,-1.9774,-2.8052,1
4220,0.1071,-0.1054,0.9837,1.5849,-1.1481,-2.1689,1
4240,0.0048,-0.0969,1.0227,0.3676,-0.1304,-2.1909,1
4260,-0.0318,-0.0967,1.0158,-0.3740,-0.3542,-1.9660,1
4280,-0.1340,-0.1156,0.9941,-0.5384,-0.6472,-2.8301,1
4300,-0.1647,-0.0130,1.0271,-0.8875,0.4128,-2.1328,1
4320,-0.2036,-0.0643,1.0338,-1.7230,0.5905,-1.7125,1
4340,-0.2767,-0.0565,1.0374,-2.9503,1.3914,-1.9083,1
4360,-0.2621,-0.0055,1.0254,-2.3777,2.4494,-1.6229,1
4380,-0.2991,-0.0258,1.0034,-3.4635,1.9383,-1.7209,1
4400,-0.2836,0.0405,1.0100,-3.3487,2.5620,-2.1225,1
4420,-0.2815,0.0448,0.9834,-3.5834,3.4641,-1.0205,1
4440,-0.2118,0.1014,0.9940,-4.3862,2.6558,-1.3254,1
4460,-0.1562,0.0830,0.9854,-4.3568,3.1945,-0.7189,1
4480,-0.0461,0.0515,0.9376,-3.9039,2.3563,-0.9789,1
4500,-0.0351,0.0468,0.9796,-4.0445,2.5937,-1.5190,1
4520,0.0582,0.0966,0.9478,-4.3545,2.6400,-0.3938,1
4540,0.1481,0.0555,0.9897,-4.4537,2.3466,-0.6703,1
4560,0.1921,0.0444,0.9738,-3.1570,1.3807,-0.6949,1
4580,0.2974,0.0432,0.9736,-3.3194,1.3030,0.5176,1
4600,0.3057,0.0161,1.0249,-4.0040,1.4383,0.2405,1
4620,0.3385,0.0431,1.0027,-3.7324,0.8061,0.1274,1
4640,0.3551,-0.0136,1.0063,-2.7576,-0.5308,0.2173,1
4660,0.3075,-0.0541,1.0043,-2.0892,0.0829,0.8997,1
4680,0.2610,-0.0755,1.0048,-1.0152,-1.1080,0.7801,1
4700,0.2162,-0.0595,1.0363,-0.0916,-1.7348,1.3002,1
4720,0.1121,-0.0772,1.0526,-0.5385,-1.6408,1.5043,1
4740,0.0267,-0.1094,1.0111,-1.4624,-1.3375,1.0055,1
4760,-0.0442,-0.0959,1.0257,0.7720,-2.1854,1.3079,1
4780,-0.1155,-0.0769,1.0094,1.8076,-2.5820,1.8413,1
4800,-0.1564,-0.0446,1.0065,0.6125,-2.7670,1.5541,1
4820,-0.2470,-0.0433,1.0126,1.9288,-2.8608,2.3790,1
4840,-0.2642,0.0241,0.9934,1.3548,-2.6211,2.0908,1
4860,-0.2560,-0.0007,0.9753,2.1338,-2.9230,1.8183,1
4880,-0.3168,0.0198,0.9973,3.5172,-3.1487,2.2920,1
4900,-0.2494,0.0132,0.9680,3.6494,-2.6647,2.4259,1
4920,-0.2569,0.0583,0.9577,3.6809,-1.6161,2.1798,1
4940,-0.1536,0.0560,0.9785,4.7435,-2.1491,1.8106,1
4960,-0.1903,0.1092,0.9735,5.8935,-1.2878,2.4281,1
4980,-0.0283,0.1353,1.0213,5.1895,-0.0642,2.5709,1
5000,0.0234,0.0768,0.9877,4.4980,-0.0766,2.2640,1
5020,0.0955,0.1101,1.0110,5.3510,0.0113,2.3351,1
5040,0.1230,0.0341,1.0170,4.2856,1.7150,2.5620,1
5060,0.1746,0.1101,1.0432,4.5333,1.4090,2.0510,1
5080,0.2421,0.0744,1.0572,4.8693,1.7212,1.9558,1
5100,0.2895,-0.0146,1.0348,3.5520,2.1018,1.7531,1
5120,0.3148,-0.0071,1.0102,1.5570,2.5982,2.6902,1
5140,0.3445,-0.0278,1.0136,3.1497,2.3797,2.1640,1
5160,0.2944,-0.0089,1.0136,2.2890,2.5650,1.7284,1
5180,0.2244,-0.0486,1.0197,1.4341,3.6715,1.7870,1
5200,0.1757,-0.0907,0.9599,1.9210,3.2784,1.6651,1
5220,0.1124,-0.0713,0.9634,0.5258,3.1604,1.2445,1
5240,0.0464,-0.1218,0.9859,0.2612,1.8458,1.8323,1
5260,-0.0596,-0.1087,0.9762,0.4066,1.8056,1.3550,1
5280,-0.0976,-0.0670,0.9729,-1.0634,1.5107,1.2084,1
5300,-0.2085,-0.1429,0.9771,-0.8482,0.3819,0.7190,1
5320,-0.2126,-0.0080,0.9742,-2.3528,0.8805,1.2679,1
5340,-0.2908,-0.0575,0.9728,-2.9832,0.5059,1.1714,1
5360,-0.2850,-0.0229,0.9839,-3.8063,0.3220,0.4855,1
5380,-0.3048,0.0823,1.0022,-3.7314,-0.7910,0.6752,1
5400,-0.2819,-0.0067,1.0212,-4.0415,-0.2614,0.4747,1
5420,-0.2667,0.0790,1.0174,-3.4317,-1.3574,-0.2841,1
5440,-0.2247,0.0903,1.0186,-4.4262,-2.4278,-0.0838,1
5460,-0.0827,0.0532,1.0287,-3.5113,-2.3947,-0.2546,1
5480,-0.1065,0.0975,1.0272,-3.8731,-2.1125,0.2093,1
5500,0.0174,0.0978,1.0314,-4.7119,-2.7009,-0.8303,1
5520,0.0797,0.1188,1.0089,-3.7806,-2.3787,-0.9469,1
5540,0.0809,0.0643,1.0365,-4.3723,-3.4476,-1.2276,1
5560,0.2306,0.0787,1.0046,-4.4041,-3.1081,-1.5114,1
5580,0.3018,0.0405,1.0168,-3.0306,-2.3260,-1.5157,1
5600,0.2974,0.0272,0.9754,-3.4460,-3.0636,-1.1735,1
5620,0.2855,0.0105,0.9848,-3.4357,-1.9485,-1.8072,1
5640,0.3208,-0.0492,0.9762,-1.7051,-2.2739,-1.9936,1
5660,0.2869,-0.0340,0.9759,-2.1177,-1.0931,-1.5727,1
5680,0.2434,-0.0632,0.9803,-0.7761,-0.9508,-2.3024,1
5700,0.2095,-0.0757,0.9403,-0.8821,-0.6169,-2.1303,1
5720,0.1204,-0.0791,0.9890,-1.1045,0.3816,-2.2621,1
5740,0.0598,-0.0745,0.9722,0.3690,0.4316,-2.0105,1
5760,-0.0266,-0.0452,0.9921,0.0730,1.1654,-2.3998,1
5780,-0.0864,-0.1225,0.9894,0.2025,2.0668,-1.8385,1
5800,-0.1795,-0.0769,1.0155,2.0877,1.6363,-2.3096,1
5820,-0.2019,-0.0453,1.0250,2.5166,1.1882,-2.1936,1
5840,-0.2911,-0.0823,1.0351,3.2354,2.6197,-2.1134,1
5860,-0.2463,0.0147,1.0545,3.3137,2.9095,-2.8685,1
5880,-0.3068,-0.0146,1.0617,3.1748,3.0363,-2.1975,1
5900,-0.2840,0.0685,1.0160,3.7573,2.6600,-2.7206,1
5920,-0.2717,0.0473,1.0124,3.5279,2.2821,-2.2980,1
5940,-0.2505,0.0838,1.0116,3.3095,2.6066,-2.4342,1
5960,-0.1350,0.1110,0.9726,4.4276,2.4197,-1.9301,1
5980,-0.0682,0.0691,0.9863,3.9869,2.6451,-2.0360,1
6000,0.0570,0.0885,0.9717,3.5918,0.9519,-2.4169,1
6020,0.0826,0.0994,0.9518,5.0015,1.0940,-1.7858,1
6040,0.1929,0.1004,0.9672,3.8239,-0.1495,-1.9234,1
6060,0.1990,0.0419,0.9681,4.2301,0.1999,-1.7708,1
6080,0.2584,0.0588,0.9556,4.7899,-0.2703,-1.4293,1
6100,0.3066,0.0334,0.9912,3.8129,-1.0217,-1.1775,1
6120,0.2651,0.0083,0.9837,3.1555,-1.3010,-1.6942,1
6140,0.2782,-0.0146,0.9957,2.2518,-1.1322,-1.2268,1
6160,0.3005,-0.0281,0.9933,3.4764,-2.6451,-0.5230,1
6180,0.2612,-0.0735,1.0333,1.7660,-2.3191,-0.5479,1
6200,0.1723,-0.0534,1.0324,0.3415,-2.1275,-0.9485,1
6220,0.1414,-0.0566,1.0101,0.5967,-3.3937,-0.3353,1
6240,0.0284,-0.0706,1.0493,1.1200,-3.2414,-0.1532,1
6260,-0.0881,-0.1086,1.0441,0.6868,-3.5439,-0.0873,1
6280,-0.1112,-0.0770,1.0143,-0.5888,-3.1094,0.2665,1
6300,-0.1599,-0.0727,1.0140,-1.4563,-2.7542,0.3387,1
6320,-0.2389,-0.0190,1.0208,-2.0933,-2.1354,0.5259,1
6340,-0.2363,-0.0294,1.0014,-2.1426,-2.8148,0.4607,1
6360,-0.3305,-0.0134,1.0193,-1.5296,-1.4147,1.1172,1
6380,-0.3534,-0.0074,0.9724,-3.6529,-1.3188,0.9881,1
6400,-0.3447,0.0458,0.9608,-3.4970,0.1873,1.0102,1
6420,-0.3292,0.0414,0.9885,-2.7684,-0.7793,1.5840,1
6440,-0.2193,0.0631,1.0097,-5.0858,0.4153,1.7161,1
6460,-0.1120,0.0812,0.9759,-4.5936,0.9400,1.6047,1
6480,-0.0560,0.0783,0.9812,-4.4821,1.8181,1.8144,1
6500,-0.0532,0.1203,0.9688,-4.8923,1.4953,2.3540,1
6520,0.0105,0.1625,1.0069,-4.3306,2.1362,2.1281,1
6540,0.1602,0.0944,1.0091,-4.3049,2.4030,2.0861,1
6560,0.1995,0.0928,1.0192,-5.9482,3.0409,2.2670,1
6580,0.2527,0.0389,1.0357,-3.3749,2.5671,2.3952,1
6600,0.2562,-0.0053,1.0159,-3.1231,3.4230,2.4785,1
6620,0.3212,0.0180,1.0195,-3.0212,3.3410,2.5892,1
6640,0.3304,0.0001,1.0352,-2.2263,2.8636,2.1233,1
6660,0.2666,-0.0562,1.0173,-2.4979,2.3249,2.3069,1
6680,0.1743,-0.0522,1.0221,-2.4063,2.7014,2.6782,1
6700,0.1281,-0.0911,1.0029,-1.9545,2.4269,2.3229,1
6720,0.1025,-0.1318,1.0148,-1.5868,1.6662,2.4349,1
6740,0.0784,-0.1207,0.9502,-0.1722,1.9844,2.6806,1
6760,-0.0313,-0.1011,0.9983,-0.3016,0.8872,2.4046,1
6780,-0.0786,-0.0174,0.9843,0.5378,0.1392,1.6535,1
6800,-0.1972,-0.0826,0.9650,1.4820,-0.7461,2.4394,1
6820,-0.2311,-0.0576,0.9653,2.0091,-0.5198,1.7499,1
6840,-0.2912,-0.0456,0.9505,1.9197,-1.5930,2.1679,1
6860,-0.2868,-0.0122,0.9870,2.7860,-1.6481,1.7593,1
6880,-0.2914,-0.0083,0.9440,3.1998,-1.5723,1.9426,1
6900,-0.2564,0.0575,0.9903,3.7590,-2.8109,1.4350,1
6920,-0.2348,0.0771,0.9964,3.6733,-2.7750,1.5665,1
6940,-0.2487,0.0105,0.9999,3.4516,-3.1605,1.1903,1
6960,-0.1581,0.1137,1.0219,4.5389,-2.7179,0.7345,1
6980,-0.0434,0.0854,1.0341,3.8214,-3.6706,1.1568,1
7000,0.0113,0.0684,1.0155,5.1753,-3.3884,1.2344,1
7020,0.0476,0.1025,1.0251,4.8264,-2.8917,0.5188,1
7040,0.1458,0.0548,1.0394,4.0507,-2.4617,0.0920,1
7060,0.1285,0.0610,1.0598,4.6548,-2.0067,0.1320,1
7080,0.2540,0.0614,0.9987,4.6120,-1.2536,0.2456,1
7100,0.2985,0.0283,1.0176,3.9957,-1.2637,-0.3228,1
7120,0.3025,0.0428,0.9792,2.3998,-0.5250,-0.3154,1
7140,0.2999,-0.0110,0.9849,3.7623,-0.7958,-0.7574,1
7160,0.2684,-0.0778,0.9774,3.4081,0.4601,-0.6148,1
7180,0.1933,-0.0722,0.9683,1.7254,1.5396,-0.6881,1
7200,0.1430,-0.0669,0.9780,2.0747,2.1565,-1.3264,1
7220,0.0861,-0.1139,0.9668,1.1230,2.3274,-1.2053,1
7240,0.0280,-0.0856,0.9607,1.5363,1.5393,-1.2811,1
7260,0.0231,-0.0891,0.9761,-0.4970,2.4914,-1.0710,1
7280,-0.1768,-0.0469,0.9655,-1.0032,2.6098,-1.4442,1
7300,-0.2243,-0.0617,1.0266,-2.2085,3.0322,-1.9481,1
7320,-0.2184,-0.0569,0.9964,-1.6233,3.8117,-1.9256,1
7340,-0.2499,-0.0694,1.0008,-2.1278,3.6279,-1.8698,1
7360,-0.3041,-0.0169,1.0039,-2.5057,3.2260,-2.2090,1
7380,-0.3135,0.0120,1.0212,-3.3200,3.5554,-2.2327,1
7400,-0.2961,0.0123,1.0411,-3.7493,2.0193,-1.8351,1
7420,-0.2107,0.0338,1.0010,-3.3389,1.6331,-2.0545,1
7440,-0.2645,0.0870,1.0068,-3.7455,1.5173,-2.6250,1
7460,-0.1567,0.0953,1.0198,-4.0080,1.9233,-2.8420,1
7480,-0.0261,0.0897,0.9961,-5.2627,0.4400,-2.1167,1
7500,-0.0038,0.1263,0.9782,-4.5073,-0.5636,-2.2909,1
7520,0.1012,0.0771,0.9513,-4.3451,-0.3285,-2.2719,1
7540,0.1816,0.0532,0.9920,-3.6431,-1.8343,-2.2769,1
7560,0.1902,0.0637,0.9803,-4.4763,-1.8149,-2.3286,1
7580,0.2207,0.0222,0.9812,-4.6327,-1.6413,-2.1529,1
7600,0.2335,0.0115,0.9880,-4.2293,-2.5205,-2.0928,1
7620,0.3229,-0.0004,0.9633,-2.4269,-1.8280,-1.8649,1
7640,0.2972,-0.0363,0.9649,-2.5549,-2.6407,-1.6529,1
7660,0.2910,-0.0744,1.0007,-3.0101,-3.1328,-1.9014,1
7680,0.2910,0.0173,1.0031,-2.0259,-2.7592,-1.6020,1
7700,0.1667,-0.0297,1.0072,-1.0919,-2.6472,-1.6230,1
7720,0.1356,-0.0985,1.0047,-1.5033,-2.6052,-1.3871,1
7740,0.0513,-0.0491,1.0210,0.1187,-3.0638,-1.5990,1
7760,-0.0167,-0.0689,1.0224,0.2396,-2.9458,-1.4436,1
7780,-0.0837,-0.0699,1.0372,0.8731,-1.8799,-1.3806,1
7800,-0.1554,-0.0627,1.0368,1.0750,-2.4143,-0.6927,1
7820,-0.2455,-0.0781,1.0365,1.6808,-0.4859,-0.6703,1
7840,-0.2509,-0.0711,1.0382,2.5680,-0.6169,-0.6410,1
7860,-0.3480,-0.0071,0.9963,2.0568,-0.6097,-0.1750,1
7880,-0.3183,0.0425,0.9942,2.2559,0.0967,0.0400,1
7900,-0.2900,0.0147,0.9949,3.9416,1.6072,0.2839,1
7920,-0.2641,0.0164,0.9774,4.0995,1.1418,-0.2570,1
7940,-0.1951,0.0644,0.9769,3.7289,1.8944,-0.0664,1
7960,-0.1178,0.1037,0.9440,3.8009,1.6854,0.1953,1
7980,-0.0771,0.0524,0.9562,3.8621,2.7401,0.5884,1
8000,-0.0217,0.0942,0.9633,4.3370,3.6062,1.1438,1
8020,0.0356,0.1071,0.9881,3.7756,3.3398,1.3728,1
8039,0.1108,0.0568,0.9982,4.5215,3.2460,1.1783,1
8060,0.2171,0.0338,1.0075,4.8857,2.8286,1.2216,1
8080,0.2074,0.0606,1.0101,3.9061,3.2812,1.2860,1
8100,0.3023,0.0033,1.0107,3.5360,2.6344,1.4190,1
8119,0.2955,0.0255,1.0129,2.3164,2.9999,2.0792,1
8140,0.2559,-0.0003,1.0182,3.0265,1.9562,1.7199,1
8160,0.2479,-0.0549,1.0156,1.9121,1.3485,1.6908,1
8180,0.2516,-0.0217,1.0211,2.0596,1.1160,2.1517,1
8200,0.1786,-0.0550,1.0344,0.6480,0.7671,2.3693,1
8220,0.0875,-0.0828,1.0319,0.7176,0.3321,2.8934,1
8240,0.0140,-0.1224,1.0183,0.7155,-0.7767,2.6889,1
8260,-0.0778,-0.0727,0.9954,0.7491,-0.2775,2.0789,1
8280,-0.1269,-0.0630,0.9889,-0.8705,-1.6278,1.7758,1
8300,-0.1768,-0.0894,0.9782,-0.5244,-2.6191,2.6250,1
8320,-0.2395,-0.0641,0.9897,-1.7120,-2.1479,2.6874,1
8340,-0.2814,-0.0530,0.9563,-2.9065,-1.3544,2.7726,1
8360,-0.3352,-0.0486,0.9773,-2.5400,-2.6286,2.3114,1
8380,-0.3032,0.0135,0.9721,-4.6119,-3.0842,2.1075,1
8400,-0.2801,0.0995,0.9802,-3.8287,-2.5793,2.4694,1
8420,-0.2407,0.0628,1.0120,-4.6219,-2.7018,1.9951,1
8440,-0.1887,0.0436,0.9834,-4.3610,-2.3066,2.4841,1
8460,-0.1819,0.0802,0.9886,-5.1137,-2.5894,2.0390,1
8480,-0.0018,0.0976,0.9882,-4.8034,-1.7013,2.6689,1
8500,-0.0476,0.0449,1.0457,-4.2662,-2.1541,2.1020,1
8520,-0.0045,0.0873,1.0294,-3.9100,-1.7676,1.8556,1
8540,0.1168,0.0850,1.0153,-4.6035,-1.2670,1.9030,1
8560,0.2311,0.0600,1.0306,-5.0531,-0.4359,1.5607,1
8580,0.3319,0.0215,1.0500,-3.3453,0.3523,1.9626,1
8600,0.2965,0.0372,1.0223,-2.9064,1.2395,1.0983,1
8620,0.2598,0.0008,1.0038,-3.3185,1.8000,0.9925,1
8640,0.2934,-0.0155,1.0195,-4.2165,1.4288,1.0304,1
8660,0.3075,-0.0501,0.9688,-2.0394,1.8220,0.4419,1
8680,0.2124,-0.0618,0.9785,-3.2393,2.8527,1.0085,1
8700,0.1959,-0.1001,0.9764,-1.3945,2.9839,0.6502,1
8720,0.0884,-0.0817,0.9804,0.0303,3.2132,0.5076,1
8740,0.0401,-0.0554,0.9765,-0.7992,3.6199,0.2998,1
8760,-0.0509,-0.1008,0.9748,0.5605,3.0772,0.0029,1
8780,-0.0594,-0.0580,0.9764,1.4080,2.4315,-0.1515,1
8800,-0.1221,-0.0780,0.9667,0.9993,2.2241,-0.6851,1
8820,-0.2423,-0.0911,0.9878,2.4574,2.0405,-0.1702,1
8840,-0.2561,-0.0136,0.9871,2.9239,1.6166,-0.5317,1
8860,-0.2895,-0.0036,0.9891,2.3314,1.9706,-1.2515,1
8880,-0.2855,-0.0272,1.0285,2.5408,1.4917,-0.9420,1
8900,-0.3062,0.0418,1.0270,3.3173,0.2922,-1.8748,1
8920,-0.2428,0.0107,1.0295,3.7853,0.5316,-1.5256,1
8940,-0.2152,0.0832,1.0350,4.3737,-0.0899,-2.0365,1
8960,-0.1218,0.0936,1.0135,4.2122,-0.8365,-1.7480,1
8980,-0.0646,0.1215,1.0407,3.6772,-1.0314,-1.4312,1
9000,0.0116,0.1162,1.0478,5.1142,-1.6512,-1.6281,1
9020,0.0790,0.0877,1.0036,5.4026,-2.5292,-1.5827,1
9040,0.1595,0.0453,1.0048,3.0986,-2.2103,-1.8660,1
9060,0.1876,0.0686,1.0190,3.8805,-3.2222,-1.7641,1
9080,0.3122,0.0483,0.9963,4.7483,-3.2490,-2.4186,1
9100,0.3222,0.0683,0.9831,3.1127,-2.0999,-2.4839,1
9120,0.2894,0.0139,0.9942,3.7927,-2.7941,-2.2240,1
9140,0.2960,-0.0035,0.9322,2.6904,-2.7670,-2.7332,1
9160,0.2830,-0.0432,0.9989,3.3550,-2.8911,-2.4445,1
9180,0.2289,-0.0682,0.9808,1.4610,-2.9135,-2.2102,1
9200,0.1952,-0.0921,0.9990,1.0116,-1.9397,-2.1350,1
9220,0.1094,-0.0728,0.9870,0.7253,-1.7318,-2.5756,1
9240,0.0323,-0.1265,0.9971,0.1116,-1.2894,-2.3813,1
9260,-0.0395,-0.0778,1.0269,-0.6724,-1.2143,-2.5656,1
9280,-0.1251,-0.0921,1.0101,-1.6209,-0.3560,-2.1298,1
9300,-0.1585,-0.0862,1.0209,-1.9466,0.3619,-2.3577,1
9320,-0.2140,-0.1002,1.0244,-1.7353,0.9739,-1.2022,1
9340,-0.2610,-0.0624,1.0279,-3.4770,1.3425,-2.1555,1
9360,-0.2672,-0.0301,1.0240,-3.2497,2.6063,-1.8866,1
9380,-0.2444,0.0252,1.0266,-3.0591,2.3897,-2.2431,1
9400,-0.2937,0.0481,1.0103,-4.4837,2.5094,-1.0186,1
9420,-0.2159,0.0467,1.0158,-4.1633,2.0085,-1.6635,1
9440,-0.1585,0.0590,0.9882,-4.3639,3.7887,-0.7469,1
9460,-0.0780,0.0751,0.9874,-5.2686,3.6625,-1.4265,1
9480,-0.0681,0.0608,0.9671,-4.9669,2.6978,-1.0732,1
9500,-0.0164,0.1100,0.9549,-4.3677,3.4013,-0.8956,1
9520,0.0531,0.0816,0.9877,-4.3481,2.4078,-0.4224,1
9540,0.1115,0.0952,0.9778,-4.5433,1.9815,-0.6563,1
9560,0.2214,0.0951,0.9669,-3.9090,1.0589,-0.3862,1
9580,0.2524,0.0264,0.9696,-4.3440,1.7070,-0.0864,1
9600,0.2182,-0.0231,0.9834,-3.3660,-0.1320,0.0008,1
9620,0.2836,0.0390,0.9965,-3.0506,0.6627,-0.3085,1
9640,0.3177,-0.0117,1.0194,-0.5127,-0.8625,1.0262,1
9660,0.2628,-0.0314,1.0193,-2.6658,-0.7071,0.7829,1
9680,0.1856,-0.0394,1.0199,-2.5940,-1.1653,1.2325,1
9700,0.1603,-0.0642,1.0185,-0.9358,-1.1368,1.5765,1
9720,0.1052,-0.0676,1.0312,-0.0657,-2.2065,1.4060,1
9740,0.0318,-0.0908,1.0282,-0.1312,-2.3151,1.4009,1
9760,0.0097,-0.0656,1.0341,0.0092,-2.9727,1.7695,1
9780,-0.0842,-0.0483,1.0041,0.7055,-3.5408,1.5031,1
9800,-0.1464,-0.0840,1.0134,1.2763,-2.8010,1.4052,1
9820,-0.2286,-0.1292,0.9912,0.9377,-2.4571,2.1015,1
9840,-0.2574,-0.0018,0.9707,3.4596,-2.5406,1.9055,1
9860,-0.2606,-0.0434,0.9650,2.5033,-3.0670,1.7564,1
9880,-0.2627,-0.0006,0.9775,2.9381,-3.4298,2.2396,1
9900,-0.3427,0.0262,0.9495,4.8329,-1.9014,2.2632,1
9920,-0.2154,0.0279,0.9792,4.0633,-1.8224,2.6734,1
9940,-0.1834,0.0725,0.9503,3.6080,-1.5661,2.3669,1
9960,-0.1784,0.1367,1.0045,4.7199,-1.0015,2.3091,1
9980,-0.1032,0.0890,0.9942,3.7195,-0.3747,2.3466,1
10000,-0.0572,0.0694,0.9938,5.6326,0.2504,1.9994,1
10020,0.0892,0.0500,1.0259,4.1818,0.4829,2.7909,1
10040,0.1059,0.0453,1.0095,4.9817,0.3502,1.5231,1
10060,0.1918,0.0788,1.0429,3.9061,1.3257,2.6850,1
10080,0.1972,0.0389,1.0318,4.2129,1.7118,2.3020,1
10100,0.2107,0.0120,1.0367,3.0512,2.3381,2.3655,1
10120,0.2891,0.0097,1.0133,3.1564,2.8851,2.2057,1
10140,0.2771,-0.0115,1.0333,1.6384,3.3506,1.9725,1
10160,0.2842,-0.0096,0.9945,1.9856,2.8302,1.7414,1
10180,0.2832,-0.0779,0.9977,2.0386,2.4588,1.7496,1
10200,0.1859,-0.0808,0.9948,1.0730,2.2654,1.8460,1
10220,0.1631,-0.0832,0.9903,1.2588,2.2318,2.1316,1
10240,0.0437,-0.0501,0.9679,1.3734,2.9214,1.6488,1
10260,-0.0306,-0.0953,0.9912,-0.1983,1.3776,1.0013,1
10280,-0.1160,-0.0762,0.9694,-0.1118,1.0051,1.2256,1
10300,-0.2309,-0.0546,0.9691,-1.1388,1.0565,1.4057,1
10320,-0.1999,-0.0434,0.9720,-1.5681,0.6447,1.1121,1
10340,-0.2220,-0.0126,0.9691,-2.1944,-0.1312,0.8558,1
10360,-0.2812,-0.0617,0.9708,-3.0383,-0.2108,0.1460,1
10380,-0.2877,0.0117,0.9948,-3.7338,-0.1272,0.8273,1
10400,-0.2998,0.0131,1.0148,-3.8554,-1.1671,0.3726,1
10420,-0.3106,0.0799,1.0175,-4.1903,-1.6157,-0.0414,1
10440,-0.2573,0.1015,1.0242,-3.9182,-1.5698,-0.5172,1
10460,-0.1303,0.0724,1.0410,-5.6350,-2.4035,-0.5712,1
10480,-0.0616,0.0985,1.0194,-4.8918,-2.6967,-0.8366,1
10500,0.0253,0.0811,0.9849,-4.7249,-3.3205,-1.2310,1
10520,0.0375,0.0898,1.0440,-4.2766,-3.2443,-0.7747,1
10540,0.1308,0.0622,0.9997,-5.4097,-3.1733,-1.0287,1
10560,0.2025,0.0556,0.9940,-3.8190,-3.5245,-1.0018,1
10580,0.2232,0.0302,0.9765,-4.2442,-2.3363,-1.2315,1
10600,0.3147,0.0403,0.9724,-3.8391,-2.8841,-1.1306,1
10620,0.2635,0.0271,0.9940,-2.1826,-2.3969,-1.4511,1
10640,0.3631,-0.0317,0.9512,-3.9964,-1.5031,-2.3552,1
10660,0.2603,-0.0278,0.9735,-2.1560,-1.2787,-1.5219,1
10680,0.2026,-0.0736,0.9586,-1.4179,-0.4859,-1.8747,1
10700,0.2118,-0.1011,0.9979,-0.4766,-0.0450,-1.5686,1
10720,0.0607,-0.0963,0.9674,-0.4103,-0.3218,-1.9570,1
10740,0.0787,-0.0726,0.9905,-0.8753,0.2917,-1.8781,1
10760,-0.0142,-0.0902,0.9892,-0.9329,0.6922,-1.7354,1
10780,-0.1489,-0.0791,1.0204,0.0903,1.7223,-2.0703,1
10800,-0.1760,-0.0040,0.9894,2.0258,1.9759,-2.1495,1
10820,-0.2179,-0.0750,1.0256,0.8013,2.6762,-2.3075,1
10840,-0.2523,-0.0129,1.0330,2.5001,2.2850,-2.6129,1
10860,-0.2591,0.0176,1.0263,2.8960,2.4685,-2.0361,1
10880,-0.2794,0.0522,1.0160,3.0536,3.0850,-2.1690,1
10900,-0.2918,0.0069,1.0386,4.0733,2.5818,-1.9180,1
10920,-0.2182,0.0514,1.0200,4.2758,2.5271,-2.2640,1
10940,-0.2699,0.0866,0.9869,5.0860,2.5972,-2.2721,1
10960,-0.1634,0.0720,1.0220,2.8659,3.0664,-2.0301,1
10980,-0.1108,0.0614,1.0162,3.8972,1.6419,-1.7012,1
11000,0.0102,0.0675,0.9856,3.8845,2.2587,-1.6232,1
11020,0.0906,0.0959,1.0019,4.4643,0.7795,-1.6950,1
11040,0.2071,0.0545,0.9658,4.6085,0.7946,-2.0024,1
11060,0.2390,0.1213,0.9730,3.6416,-0.3959,-1.4984,1
11080,0.2864,0.0596,0.9719,3.5898,-0.7175,-1.1845,1
11100,0.3127,-0.0093,1.0007,3.9850,-0.1163,-1.6886,1
11120,0.2584,0.0021,0.9918,4.3582,-0.9254,-1.2025,1
11140,0.2639,0.0127,0.9788,3.8455,-1.8298,-0.4898,1
11160,0.2918,-0.0416,0.9952,2.2067,-1.9152,-0.7756,1
11180,0.2133,-0.0613,1.0136,0.6388,-2.2428,-0.9199,1
11200,0.1417,-0.1133,0.9936,0.5773,-3.0335,0.1363,1
11220,0.0947,-0.0794,1.0325,0.9219,-2.9310,-0.6294,1
11240,0.0811,-0.0459,1.0044,-0.3319,-3.1143,-0.3798,1
11260,-0.0224,-0.1068,1.0621,0.4318,-2.8927,0.3986,1
11280,-0.0773,-0.0972,1.0142,-0.7963,-2.5084,0.3126,1
11300,-0.2236,-0.0921,1.0194,-1.4360,-1.8268,0.0339,1
11320,-0.2160,-0.0216,1.0465,-2.1586,-2.2279,0.7969,1
11340,-0.2656,-0.0407,1.0096,-3.9306,-1.8010,0.8366,1
11360,-0.3014,0.0323,0.9831,-3.1103,-0.8056,0.7174,1
11380,-0.3159,0.0021,0.9969,-3.1557,-1.8248,0.9700,1
11400,-0.3035,0.0260,0.9833,-3.3897,-1.5453,1.6052,1
11420,-0.2457,0.0815,0.9786,-3.2826,-0.0160,1.8388,1
11440,-0.1897,0.0633,1.0041,-3.6506,0.5593,1.1929,1
11460,-0.1832,0.0859,0.9734,-4.7271,0.8823,2.1843,1
11480,-0.0537,0.0598,0.9738,-4.9475,1.1369,1.7058,1
11500,-0.0143,0.0599,0.9805,-4.8364,0.4451,2.5575,1
11520,0.1073,0.0781,0.9914,-5.1675,2.9240,2.6116,1
11540,0.1492,0.1034,1.0034,-5.1607,2.3065,2.1711,1
11560,0.1917,0.0604,1.0090,-4.2325,2.7692,1.8904,1
11580,0.2318,0.0174,1.0335,-5.2068,3.4340,2.6889,1
11600,0.2763,-0.0347,1.0199,-3.6791,2.5393,2.1700,1
11620,0.3453,0.0216,1.0153,-4.2389,2.8337,2.2989,1
11640,0.3096,-0.0297,1.0376,-1.7073,3.2425,2.3735,1
11660,0.2660,-0.0469,1.0452,-2.7876,2.7019,2.4146,1
11680,0.2161,-0.0903,1.0270,-1.9526,2.6298,2.2369,1
11700,0.2130,-0.0939,1.0401,-2.4392,2.2493,2.5237,1
11720,0.0866,-0.0735,1.0244,-2.1733,1.8654,1.6037,1
11740,0.0086,-0.0502,0.9868,-0.9869,1.0850,2.9292,1
11760,-0.0926,-0.1145,1.0087,1.3972,0.6263,1.8812,1
11780,-0.0476,-0.0454,0.9886,0.3558,0.1287,2.1361,1
11800,-0.1664,-0.0380,0.9860,0.7442,0.2434,2.1971,1
11820,-0.2105,-0.0222,0.9535,1.8945,-1.1303,1.5397,1
11840,-0.2610,0.0220,0.9431,2.3919,-1.0905,1.9425,1
11860,-0.2981,-0.0480,0.9778,2.4143,-2.8093,2.1486,1
11880,-0.2707,0.0069,0.9840,3.9249,-2.1116,1.9360,1
11900,-0.2942,0.0593,0.9938,3.7570,-3.1045,1.6159,1
11920,-0.2783,0.0329,0.9863,3.3036,-1.8191,1.7856,1
11940,-0.1478,0.0363,1.0093,3.4079,-3.2449,0.9592,1
11960,-0.1073,0.0694,1.0330,4.7211,-1.9612,0.6323,1
11980,-0.0368,0.1147,1.0094,5.0688,-2.8201,0.8432,1
12000,-0.0247,0.0727,1.0593,4.5004,-2.5012,0.5044,1
12020,0.0512,0.1131,1.0098,4.2154,-2.6316,0.6010,1
12040,0.1392,0.0884,1.0387,4.7994,-2.8025,0.3051,1
12060,0.2412,0.0871,1.0030,4.3949,-2.8882,0.2249,1
12080,0.3102,0.0255,1.0039,4.4018,-2.2698,-0.1597,1
12100,0.3032,0.0126,1.0039,4.0871,-0.9147,-0.0707,1
12120,0.2892,0.0145,0.9959,3.5550,-0.8227,-0.3855,1
12140,0.2650,-0.0177,0.9761,2.2000,0.0410,-0.4450,1
12160,0.2949,-0.0487,0.9861,2.7417,0.6508,-0.9317,1
12180,0.2356,-0.0486,0.9740,0.6641,1.0351,-0.1916,1
12200,0.1655,-0.0903,0.9761,1.5780,1.9820,-1.3992,1
12220,0.1324,-0.0695,0.9682,1.0464,2.3463,-0.9209,1
12240,0.0033,-0.0696,0.9722,0.3263,2.2957,-1.3816,1
12260,-0.0018,-0.0913,0.9621,-0.5187,2.6530,-1.1141,1
12280,-0.0923,-0.1041,1.0242,-0.6844,3.3769,-1.6663,1
12300,-0.1603,-0.0527,1.0145,-0.7562,3.3394,-1.8441,1
12320,-0.2483,-0.0494,1.0200,-2.0496,3.4791,-1.4325,1
12340,-0.2989,-0.0584,1.0130,-2.2267,2.7240,-1.5708,1
12360,-0.2820,-0.0159,1.0011,-3.6579,2.9554,-2.7132,1
12380,-0.2690,0.0019,1.0764,-1.8956,2.5289,-2.1905,1
12400,-0.2554,0.0687,1.0054,-4.7124,2.0316,-2.0566,1
12420,-0.2384,0.0739,1.0110,-5.3331,2.3273,-2.5401,1
12440,-0.2659,0.0691,1.0368,-4.2572,1.3048,-2.3867,1
12460,-0.1556,0.0465,1.0075,-4.0459,1.1787,-2.3223,1
12480,-0.1045,0.0828,0.9770,-4.3574,1.1681,-2.8354,1
12500,-0.0176,0.0979,1.0188,-4.7689,-0.3115,-2.9907,1
12520,0.0777,0.1362,0.9945,-4.4779,-0.3801,-2.3965,1
12540,0.1201,0.0986,0.9851,-4.3481,-1.4728,-1.9817,1
12560,0.2253,0.0523,0.9901,-4.4825,-1.8628,-2.5668,1
12580,0.2002,0.0595,0.9436,-4.6804,-2.8752,-2.3175,1
12600,0.2808,0.0200,0.9544,-4.3439,-2.1026,-2.3966,1
12620,0.3089,-0.0156,0.9750,-2.4984,-2.3468,-2.2823,1
12640,0.3024,-0.0226,0.9775,-3.0638,-2.9029,-2.0098,1
12660,0.2416,-0.0627,0.9641,-3.3714,-3.5078,-1.9286,1
12680,0.2044,-0.0450,0.9945,-3.0971,-2.7050,-1.6251,1
12700,0.1465,-0.0627,0.9909,-1.3320,-3.5159,-2.2875,1
12720,0.0990,-0.0866,1.0071,-1.5536,-2.9829,-1.5400,1
12740,0.0363,-0.0849,1.0110,0.4205,-3.1019,-1.3366,1
12760,-0.0021,-0.0777,1.0238,-0.0344,-1.7965,-1.7634,1
12780,-0.1395,-0.0932,1.0483,1.0711,-2.3187,-1.2756,1
12800,-0.1948,-0.0898,1.0442,0.5675,-0.7213,-0.7734,1
12820,-0.1984,-0.0685,1.0239,1.0561,-1.1989,-0.7073,1
12840,-0.2326,-0.0649,1.0145,2.3204,-1.0788,-0.5066,1
12860,-0.3164,-0.0216,1.0050,2.3948,0.0722,-0.5735,1
12880,-0.3106,-0.0118,1.0071,4.2725,0.6621,-0.0319,1
12900,-0.3270,0.0316,0.9761,2.7544,0.7717,0.2069,1
12920,-0.2248,0.0541,0.9606,3.8256,1.7113,0.0828,1
12940,-0.2607,0.0442,0.9755,4.5058,1.0098,0.1622,1
12960,-0.1402,0.0993,0.9821,4.7082,1.9989,-0.1821,1
12980,-0.0864,0.1112,0.9909,4.8908,2.8401,0.6815,1
13000,-0.0167,0.0869,0.9965,3.9345,3.5798,0.6450,1
13020,0.1144,0.0534,0.9847,4.0225,2.3345,0.9770,1
13040,0.1748,0.0586,0.9605,4.3035,2.9585,1.2406,1
13060,0.2339,0.0642,1.0196,4.3185,2.7759,0.7512,1
13080,0.2454,0.0402,1.0159,4.2209,2.2445,1.4379,1
13100,0.3055,0.0645,1.0244,4.0971,2.5600,1.6463,1
13120,0.3369,-0.0263,1.0142,2.8168,2.3832,2.0338,1
13140,0.2768,-0.0742,1.0195,3.4165,2.0657,1.9187,1
13160,0.2630,-0.0690,1.0370,1.9107,2.3616,2.0767,1
13180,0.2137,-0.0720,1.0284,1.7723,1.3937,2.0660,1
13200,0.1544,-0.0274,1.0279,1.8519,0.1023,2.2121,1
13220,0.1198,-0.1290,1.0518,1.6176,-0.3295,1.8536,1
13240,0.0480,-0.0872,1.0191,0.3975,-0.4450,2.6872,1
13260,-0.0206,-0.1145,1.0249,0.7018,0.2443,1.9718,1
13280,-0.1032,-0.1337,1.0030,-1.1721,-0.7736,2.1193,1
13300,-0.2270,-0.0841,0.9559,-0.9399,-2.9829,2.3896,1
13320,-0.2935,-0.0651,1.0025,-1.6996,-2.7933,2.3876,1
13340,-0.2709,-0.0270,0.9520,-2.0557,-3.8985,2.2103,1
13360,-0.3093,-0.0017,0.9705,-3.7117,-3.3188,2.4475,1
13380,-0.3018,-0.0082,0.9636,-2.8627,-3.2138,2.3365,1
13400,-0.2202,-0.0064,0.9469,-3.1704,-3.2995,2.2291,1
13420,-0.2767,0.0420,1.0051,-3.4621,-2.5269,1.8482,1
13440,-0.2399,-0.0025,0.9775,-3.6100,-2.5131,2.1421,1
13460,-0.1452,0.0623,1.0023,-3.8991,-3.2189,2.2214,1
13480,-0.0466,0.0772,1.0194,-2.7757,-2.2079,2.1604,1
13500,-0.0221,0.0944,1.0245,-4.3831,-2.2222,2.0035,1
13520,0.1185,0.0979,1.0389,-4.6067,-0.9739,1.9136,1
13540,0.1160,0.0865,1.0139,-4.7384,-0.7337,1.7969,1
13560,0.1697,0.0909,1.0386,-4.6068,-0.9930,1.5323,1
13580,0.2399,0.0509,1.0226,-5.1479,0.0512,1.3433,1
13600,0.3043,0.0111,1.0483,-4.7876,1.3361,1.2187,1
13620,0.3252,0.0076,1.0328,-3.5128,0.7487,1.5558,1
13640,0.2913,-0.0115,1.0252,-3.4876,1.9698,0.7900,1
13660,0.2675,-0.0366,0.9745,-2.8785,2.7159,1.0646,1
13680,0.2293,-0.0515,0.9832,-1.1021,2.3589,0.6956,1
13700,0.2107,-0.0915,1.0028,-2.3089,3.4478,0.3379,1
13720,0.1032,-0.1290,0.9667,-1.4671,2.6227,0.2297,1
13740,0.0663,-0.0843,0.9750,-0.9399,2.5921,0.6301,1
13760,-0.0597,-0.0495,0.9668,0.2839,3.4701,0.2911,1
13780,-0.1138,-0.0930,0.9727,1.0460,3.2972,-0.2696,1
13800,-0.1578,-0.0335,0.9852,1.5776,2.0310,-1.2389,1
13820,-0.2195,-0.0596,0.9798,2.0621,2.4218,-0.2877,1
13840,-0.2689,-0.0562,1.0118,2.2809,2.3449,-0.9420,1
13860,-0.3142,-0.0148,1.0069,3.1563,1.5809,-1.5179,1
13880,-0.3124,0.0247,1.0113,3.1325,1.6870,-1.3433,1
13900,-0.3316,0.0240,1.0159,3.0608,0.6671,-1.1385,1
13920,-0.2536,0.0556,1.0552,3.7377,0.3512,-1.5877,1
13940,-0.2308,0.0516,1.0228,4.3997,0.7560,-1.7906,1
13960,-0.1570,0.0774,1.0347,4.5168,-0.2410,-2.4356,1
13980,-0.1462,0.0753,1.0409,3.5251,-2.6648,-1.6585,1
14000,0.0073,0.0638,1.0029,3.9182,-1.7136,-2.1295,1
14020,0.0894,0.0187,0.9961,3.7889,-2.2763,-2.2038,1
14040,0.1685,0.0342,0.9999,4.6936,-1.6563,-2.2761,1
14060,0.2151,0.0223,0.9538,4.6909,-2.7482,-1.8550,1
14080,0.2121,0.0607,1.0092,4.1952,-2.7904,-2.2705,1
14100,0.2382,0.0603,0.9655,3.9433,-3.6974,-2.6784,1
14120,0.3425,-0.0027,0.9927,3.2334,-3.8097,-2.0953,1
14140,0.2770,-0.0001,0.9705,1.9425,-2.8016,-1.7290,1
14160,0.2862,-0.0397,0.9887,2.5376,-2.5872,-2.7267,1
14180,0.2382,-0.0325,0.9653,2.7707,-2.4460,-2.6633,1
14200,0.2063,-0.0797,0.9969,1.2155,-2.0806,-2.2330,1
14220,0.1192,-0.1316,0.9779,1.4009,-1.6986,-2.5088,1
14240,-0.0032,-0.1152,0.9742,0.2218,-1.4434,-2.5988,1
14260,-0.0396,-0.0806,1.0452,-1.1897,-0.1511,-1.9610,1
14280,-0.1338,-0.0788,1.0147,-0.7318,0.5284,-2.0026,1
14300,-0.1611,-0.0831,1.0049,-1.5157,0.9190,-2.5613,1
14320,-0.2628,-0.0543,1.0150,-2.3915,0.7005,-2.4198,1
14340,-0.3007,-0.0214,1.0097,-3.3699,1.0952,-1.6860,1
14360,-0.3006,-0.0280,1.0264,-3.9158,2.0464,-1.6752,1
14380,-0.3117,0.0298,1.0025,-2.6036,2.2821,-1.7657,1
14400,-0.2859,0.0252,1.0293,-4.2866,2.1899,-1.2189,1
14420,-0.2712,0.0698,1.0270,-4.1845,3.0818,-1.7323,1
14440,-0.1827,0.0704,0.9989,-4.5713,2.1843,-1.0837,1
14460,-0.2064,0.0713,0.9971,-4.2435,3.8746,-0.7686,1
14480,-0.0942,0.0878,0.9752,-5.4138,2.5482,-1.0797,1
14500,-0.0611,0.0911,0.9677,-5.5037,3.0351,-0.5269,1
14520,0.0814,0.0794,0.9789,-4.0564,2.7852,-0.8150,1
14540,0.1528,0.1076,0.9628,-3.0999,2.1223,-0.3806,1
14560,0.1852,0.0710,0.9503,-4.5116,1.5066,-0.1702,1
14580,0.2831,0.0637,0.9480,-2.7181,1.7084,-0.2631,1
14600,0.2900,0.0320,0.9825,-3.5218,0.8310,0.0294,1
14620,0.2788,-0.0287,1.0044,-2.9292,0.8308,0.5767,1
14640,0.3044,-0.0296,1.0243,-3.6829,-0.3299,0.2196,1
14660,0.3038,-0.0157,1.0273,-1.7681,-0.8464,0.7886,1
14680,0.2274,-0.0370,1.0244,-2.1470,-0.7194,1.1182,1
14700,0.1563,-0.0743,1.0136,-2.8894,-1.3551,1.2045,1
14720,0.1183,-0.1305,1.0245,-2.1742,-1.2667,0.8567,1
14740,0.0753,-0.0666,1.0133,-0.9622,-2.1051,1.0832,1
14760,-0.0345,-0.1009,0.9944,-1.0557,-2.4706,1.3144,1
14780,-0.1270,-0.0670,1.0307,0.6797,-2.9563,1.7708,1
14800,-0.2170,-0.0675,1.0120,1.7987,-3.8184,1.5211,1
14820,-0.2575,-0.0550,1.0012,2.8140,-3.2225,1.7190,1
14840,-0.2370,-0.0312,1.0039,2.5845,-3.4808,1.5765,1
14860,-0.3412,-0.0010,0.9952,3.9780,-2.4496,2.4223,1
14880,-0.3168,-0.0221,0.9850,3.5310,-2.5622,2.2748,1
14900,-0.2756,0.0586,0.9895,3.9671,-1.9309,2.3857,1
14920,-0.2671,0.0664,0.9501,4.5757,-2.4787,2.3774,1
14940,-0.2307,0.0789,0.9746,3.2271,-1.3216,2.1655,1
14960,-0.1181,0.0789,0.9877,3.7841,-1.2991,2.2352,1
14980,-0.0489,0.1274,0.9783,5.1106,-1.5014,2.0349,1
15000,-0.0288,0.0575,0.9762,4.7478,-0.0963,2.5138,1
15020,0.0953,0.0935,1.0195,4.4228,-0.0091,2.7105,1
15040,0.1269,0.0564,1.0156,3.8109,0.8461,2.4760,1
15060,0.2158,0.0441,1.0176,4.8286,1.7342,2.9614,1
15080,0.2887,0.0757,1.0081,4.4017,1.9173,2.1264,1
15100,0.2904,0.0505,1.0375,3.1135,2.6456,2.0402,1
15120,0.3059,-0.0016,1.0245,3.7401,2.1425,2.7421,1
15140,0.2401,-0.0312,1.0282,3.2190,2.7838,2.0562,1
15160,0.2838,-0.0439,1.0360,2.9148,3.3528,1.6866,1
15180,0.2288,-0.0646,0.9909,2.1321,2.7578,2.0649,1
15200,0.1442,-0.0316,0.9828,1.5222,3.3032,1.5783,1
15220,0.1360,-0.1132,1.0087,0.8517,2.5346,1.5310,1
15240,0.0619,-0.1033,0.9677,0.1496,2.0429,2.0290,1
15260,-0.0546,-0.0693,0.9763,-0.8733,2.2601,1.5717,1
15280,-0.1161,-0.0550,0.9856,-0.2919,1.6762,0.8586,1
15300,-0.1947,-0.0681,0.9787,-2.6935,1.4416,1.0693,1
15320,-0.2395,-0.0264,0.9802,-1.1299,0.8656,1.1366,1
15340,-0.2224,-0.0068,0.9636,-2.5634,0.2954,0.8308,1
15360,-0.2741,-0.0370,0.9893,-4.0804,0.5735,0.3551,1
15380,-0.2977,-0.0018,1.0149,-4.9829,-0.6066,0.2990,1
15400,-0.2989,0.0692,0.9942,-3.1775,-0.9441,0.5292,1
15420,-0.2733,0.0306,1.0328,-3.6882,-2.2707,-0.1920,1
15440,-0.1938,0.0857,1.0134,-5.9325,-1.7626,-0.5769,1
15460,-0.2050,0.0109,1.0405,-4.2815,-2.4604,0.0264,1
15480,-0.0555,0.1260,1.0091,-4.4852,-3.3744,-0.6364,1
15500,-0.0075,0.1050,1.0292,-4.1260,-2.5366,-0.0952,1
15520,0.0651,0.0646,1.0277,-4.9459,-2.3045,-0.9964,1
15540,0.1276,0.0676,1.0278,-4.4533,-3.2866,-0.5765,1
15560,0.1797,0.0665,1.0180,-5.1628,-2.7157,-1.5512,1
15580,0.2780,0.0251,1.0089,-3.2799,-2.3876,-1.3108,1
15600,0.2784,0.0140,1.0110,-4.0603,-2.9997,-1.3302,1
15620,0.2755,-0.0172,0.9589,-3.5701,-2.2498,-1.5918,1
15640,0.3232,-0.0042,0.9714,-2.9873,-1.5942,-1.4085,1
15660,0.2752,-0.0496,0.9558,-3.2783,-1.0789,-1.7322,1
15680,0.2485,-0.0605,0.9913,-2.2065,-0.4613,-2.0217,1
15700,0.1581,-0.0586,0.9790,-1.1764,-0.3394,-2.1145,1
15720,0.1821,-0.0553,0.9892,-0.7761,0.6040,-2.0289,1
15740,0.0384,-0.0966,0.9850,-2.1848,0.7676,-2.3995,1
15760,0.0102,-0.0888,0.9777,0.2526,0.7034,-2.1668,1
15780,-0.1017,-0.0607,0.9934,0.8636,1.0249,-2.1412,1
15800,-0.1608,-0.0609,1.0145,1.6394,2.7756,-2.4666,1
15820,-0.2270,-0.0834,1.0091,1.9747,2.9015,-2.4739,1
15840,-0.2785,-0.0481,1.0194,2.5882,2.0078,-2.0150,1
15860,-0.3146,0.0005,1.0108,3.2697,3.1779,-2.2726,1
15880,-0.3292,0.0116,1.0114,3.1287,3.4441,-2.1239,1
15900,-0.2849,0.0044,1.0350,3.6522,1.9499,-2.0898,1
15920,-0.2540,0.0771,1.0024,2.0374,3.0405,-2.1856,1
15940,-0.2561,0.0421,1.0517,4.0006,3.0747,-2.4038,1
15960,-0.2072,0.0748,0.9968,4.1187,2.4402,-2.0522,1
15980,-0.0791,0.0568,0.9984,3.2949,1.2383,-1.8206,1
16000,0.0152,0.0886,0.9614,4.0753,1.6451,-2.4204,1
16020,0.0524,0.1028,0.9969,4.2129,1.6518,-2.4041,1
16040,0.1643,0.0596,0.9759,4.2100,1.4130,-1.9700,1
16059,0.2242,0.0589,0.9676,4.0737,-0.0795,-1.5800,1
16079,0.2514,0.0540,0.9732,4.4222,0.1896,-1.7502,1
16100,0.3114,-0.0007,0.9857,4.0124,-1.6062,-1.2581,1
16120,0.2854,-0.0126,1.0045,2.8882,-1.6060,-1.1070,1
16140,0.3153,-0.0203,1.0108,3.1870,-2.6820,-1.1258,1
16160,0.2546,-0.0268,0.9636,3.9406,-1.8690,-0.7541,1
16180,0.2666,-0.0011,1.0255,2.4853,-2.3902,-0.6685,1
16200,0.1621,-0.0926,1.0102,0.5802,-2.7486,-0.9551,1
16219,0.1162,-0.0846,1.0287,0.5299,-1.5116,0.1372,1
16239,0.0003,-0.0837,1.0205,-0.3261,-3.5914,0.0392,1
16260,-0.0580,-0.0661,1.0445,0.5418,-3.3720,0.2331,1
16280,-0.0915,-0.0951,1.0149,0.1225,-2.7938,0.4616,1
16300,-0.2010,-0.1021,1.0120,-1.4650,-3.1934,0.4468,1
16320,-0.2818,-0.0842,1.0225,-1.5537,-2.6254,0.3207,1
16340,-0.3023,-0.0473,1.0127,-1.8543,-2.3314,0.4527,1
16360,-0.2867,-0.0366,0.9855,-2.0732,-1.3296,1.0144,1
16379,-0.3376,0.0107,1.0002,-3.5057,-0.6351,1.5175,1
16400,-0.2354,0.0351,0.9857,-2.7921,-0.5447,1.1356,1
16420,-0.2668,0.0539,0.9526,-4.0293,0.2675,0.7776,1
16440,-0.1593,0.0925,0.9631,-3.8580,0.3025,1.9448,1
16460,-0.1150,0.0453,0.9801,-4.4820,0.8561,1.4892,1
16480,-0.0222,0.1121,0.9644,-5.2653,1.1378,1.9602,1
16500,0.0072,0.1201,0.9942,-3.9183,1.9104,1.5249,1
16520,0.0687,0.1126,0.9903,-4.1627,2.0175,1.7334,1
16540,0.1408,0.0863,0.9909,-4.5001,2.0690,2.4673,1
16560,0.1965,0.1005,1.0333,-4.2326,2.2919,1.5828,1
16580,0.2091,0.0153,1.0395,-3.8739,3.0902,1.6069,1
16600,0.2494,0.0491,1.0296,-3.7289,3.2483,2.8153,1
16620,0.2928,0.0073,1.0320,-1.8451,2.0361,2.5679,1
16640,0.2912,-0.0033,1.0200,-2.8978,3.1957,3.3218,1
16660,0.2957,-0.0587,1.0211,-2.6833,1.8735,2.3002,1
16680,0.2531,-0.0879,1.0379,-1.6233,2.0743,2.3545,1
16700,0.2243,-0.0552,1.0146,-1.5332,2.0881,2.2275,1
16720,0.0473,-0.0347,1.0076,-0.6043,1.6131,2.1311,1
16740,0.0320,-0.1277,1.0296,-1.0233,0.7097,2.1768,1
16760,0.0010,-0.0889,0.9677,1.0352,1.0018,2.4145,1
16780,-0.0890,-0.0262,1.0112,0.4312,0.8815,2.2992,1
16800,-0.1614,-0.1134,0.9703,0.9029,-0.0034,2.4245,1
16820,-0.2934,-0.0579,0.9870,1.8040,-0.5630,2.1154,1
16840,-0.2612,-0.0448,0.9524,1.7383,-1.0595,1.9114,1
16860,-0.2988,-0.0270,0.9697,3.4966,-1.9747,1.3879,1
16880,-0.2771,0.0007,0.9811,4.2449,-2.2218,1.7515,1
16900,-0.3207,0.0225,0.9981,2.7074,-2.4426,1.5601,1
16920,-0.2521,0.0731,1.0035,4.8302,-3.2223,1.4270,1
16940,-0.2028,0.0399,1.0225,5.5788,-2.9395,1.3862,1
16960,-0.1420,0.0617,0.9897,3.9352,-3.6242,1.5874,1
16980,-0.0781,0.0789,1.0374,3.7915,-3.3165,0.9319,1
17000,0.0309,0.1020,1.0323,4.5469,-2.6731,0.8021,1
17020,0.0437,0.0883,1.0139,4.5132,-2.8632,1.3294,1
17040,0.1433,0.0452,1.0263,4.6702,-1.6059,0.2135,1
17060,0.1579,0.0852,1.0029,3.9223,-2.1140,0.1900,1
17080,0.2740,0.0318,1.0123,3.9348,-1.5082,0.0595,1
17100,0.2984,0.0481,1.0134,3.9127,-1.8164,-0.1356,1
17120,0.3138,0.0231,0.9874,2.8849,-0.8575,-0.1698,1
17140,0.3257,-0.0266,1.0019,2.9425,-0.1313,-0.5722,1
17160,0.2938,-0.0305,1.0142,1.8999,0.6838,-0.8428,1
17180,0.2051,-0.0576,0.9760,3.6669,0.8800,-1.1944,1
17200,0.1845,-0.1226,0.9692,1.4002,1.8028,-0.7298,1
17220,0.0953,-0.0873,0.9588,0.1664,2.0225,-1.5646,1
17240,0.0252,-0.1132,0.9814,1.3634,1.6770,-1.8924,1
17260,-0.0413,-0.0889,0.9822,-0.5503,2.4823,-1.3726,1
17280,-0.0792,-0.1306,0.9814,-0.7149,2.3899,-1.1014,1
17300,-0.1954,-0.0738,1.0046,-1.7453,2.1159,-1.8781,1
17320,-0.2003,-0.0655,0.9933,-1.3606,2.8509,-2.0214,1
17340,-0.2670,-0.0198,1.0508,-1.9149,3.4820,-2.1283,1
17360,-0.3255,-0.0154,1.0242,-3.5155,2.7501,-1.9536,1
17380,-0.2886,0.0178,1.0321,-3.5846,2.3793,-2.5183,1
17400,-0.2318,0.0281,1.0266,-4.1979,3.6326,-2.5535,1
17420,-0.2662,0.0582,1.0380,-3.3686,2.7546,-2.1398,1
17440,-0.2370,0.0594,1.0295,-2.9431,0.8819,-1.9781,1
17460,-0.1391,0.0990,1.0167,-4.8641,1.3718,-2.1764,1
17480,-0.0454,0.0869,1.0006,-5.3998,0.8938,-2.2660,1
17500,-0.0290,0.0771,0.9930,-5.3898,-0.3680,-2.7401,1
17520,0.0622,0.0694,0.9660,-3.2510,0.0386,-2.6269,1
17540,0.1527,0.0889,0.9996,-4.8498,-0.5425,-2.5371,1
17560,0.1653,0.0830,0.9944,-2.6312,-2.0507,-2.1292,1
17580,0.2410,0.0670,0.9490,-4.7010,-2.2903,-2.2680,1
17600,0.2661,0.0436,0.9855,-3.2808,-1.5831,-2.1067,1
17620,0.2629,0.0384,0.9632,-2.7341,-1.9024,-2.0216,1
17640,0.2498,-0.0389,0.9972,-2.9699,-2.7932,-1.8458,1
17660,0.2923,-0.0316,0.9818,-2.5988,-2.5740,-1.8104,1
17680,0.2234,-0.0314,0.9921,-2.4270,-3.3413,-2.1619,1
17700,0.1682,-0.0432,0.9917,-1.2775,-3.2424,-1.8276,1
17720,0.0651,-0.0890,1.0102,-0.5190,-2.7025,-1.9803,1
17740,0.0701,-0.0842,1.0241,-0.2881,-2.8056,-1.4175,1
17760,-0.0233,-0.1312,1.0187,0.1296,-2.1475,-0.9785,1
17780,-0.1336,-0.0956,1.0220,0.3623,-2.0393,-0.9513,1
17800,-0.2080,-0.0625,1.0039,1.0538,-1.5935,-0.5194,1
17820,-0.2394,-0.1102,0.9961,1.9364,-0.6866,-0.7428,1
17840,-0.2664,-0.0104,1.0119,2.9482,-1.1851,-0.9555,1
17860,-0.3489,-0.0235,1.0110,2.9369,0.1032,-0.7871,1
17880,-0.3051,-0.0303,1.0227,3.0982,0.3791,0.1460,1
17900,-0.3226,0.0008,0.9761,3.5999,1.2986,0.0712,1
17920,-0.1761,-0.0058,0.9927,3.6091,1.3116,-0.1558,1
17940,-0.2326,0.1060,0.9890,4.1979,2.6060,-0.2429,1
17960,-0.1844,0.0266,0.9612,4.4556,2.4052,0.4351,1
17980,-0.1169,0.1064,0.9736,4.9043,1.7951,0.6610,1
18000,-0.0356,0.0805,0.9795,4.5547,2.4700,0.7435,1
18020,0.0287,0.1148,0.9729,5.1356,2.7344,0.7544,1
18040,0.1216,0.0999,0.9723,4.7454,2.8258,0.4833,1
18060,0.1883,0.0373,0.9923,3.4697,3.3485,1.2073,1
18080,0.2480,0.0640,1.0160,3.9313,2.4282,0.8540,1
18100,0.2647,0.0130,1.0126,3.4335,2.8426,1.3459,1
18120,0.2977,0.0341,1.0245,3.2443,1.9417,1.4748,1
18140,0.2692,-0.0298,1.0371,2.7353,1.2164,2.3207,1
18160,0.2810,-0.0721,1.0227,2.4778,2.1458,1.5731,1
18180,0.2604,-0.0238,1.0204,1.7495,0.4248,1.9490,1
18200,0.1752,-0.0570,1.0435,0.9417,-0.5093,2.0968,1
18220,0.1192,-0.0777,1.0167,0.9181,0.5312,2.2988,1
18240,0.0264,-0.1013,1.0112,1.2646,-0.7553,2.2470,1
18260,-0.0521,-0.0629,1.0339,-0.0122,-1.1369,2.3199,1
18280,-0.1820,-0.0658,0.9968,-0.5862,-1.9593,2.2363,1
18300,-0.1887,-0.0483,0.9799,-0.1410,-1.8598,1.9984,1
18320,-0.2350,-0.0730,0.9450,-0.9563,-2.0883,2.5569,1
18340,-0.2665,-0.0715,0.9653,-1.9062,-3.1546,1.6397,1
18360,-0.3015,-0.0203,0.9721,-2.4313,-2.5886,2.4655,1
18380,-0.2635,-0.0308,0.9784,-2.9044,-3.5386,1.9121,1
18400,-0.3077,0.0119,0.9860,-4.0093,-3.3794,2.1411,1
18420,-0.2197,0.0485,0.9785,-4.0094,-2.3335,2.0483,1
18440,-0.1659,0.0707,0.9873,-2.6835,-3.2208,2.1025,1
18460,-0.1815,0.1017,1.0246,-3.3567,-1.9410,2.0722,1
18480,-0.0856,0.0471,1.0394,-4.1831,-2.3823,2.4408,1
18500,-0.0292,0.0998,1.0150,-4.1168,-1.7920,1.5064,1
18520,0.0769,0.1123,1.0241,-3.9994,-1.7818,1.8220,1
18540,0.1258,0.0968,1.0292,-3.9446,-0.3294,1.9152,1
18560,0.2136,0.0417,1.0299,-4.5038,-0.4559,1.4634,1
18580,0.2239,0.0012,1.0180,-3.8274,-0.3807,1.4397,1
18600,0.3423,0.0524,1.0478,-3.4059,1.2714,1.0688,1
18620,0.2801,-0.0601,1.0335,-2.3562,0.9942,1.0535,1
18640,0.2721,-0.0077,1.0236,-3.9141,1.8861,0.8840,1
18660,0.2748,-0.0273,0.9942,-2.4734,2.0117,1.0899,1
18680,0.2437,-0.0521,0.9685,-2.1432,2.8534,0.6373,1
18700,0.1961,-0.0304,0.9950,-1.3347,2.4845,-0.3163,1
18720,0.1054,-0.0915,0.9794,-0.9356,2.7520,-0.2630,1
18740,0.0094,-0.0779,0.9961,-0.3411,3.1359,0.3762,1
18760,-0.0619,-0.0805,0.9593,0.8015,3.0565,-0.0009,1
18780,-0.1339,-0.0667,1.0048,0.2385,2.7433,-0.2014,1
18800,-0.1527,-0.0862,0.9370,2.2061,3.0567,-0.9726,1
18820,-0.2494,-0.0197,1.0093,2.4792,2.3698,-0.6011,1
18840,-0.2754,-0.0112,0.9839,1.9277,2.5626,-0.8121,1
18860,-0.2533,-0.0330,1.0059,2.3150,1.7051,-1.4105,1
18880,-0.3140,-0.0288,1.0262,3.7103,0.4645,-0.7295,1
18900,-0.2104,0.0289,1.0135,5.3352,0.1525,-1.2800,1
18920,-0.2479,0.0805,1.0334,3.6442,-0.2021,-1.5375,1
18940,-0.2356,0.0668,1.0215,3.2876,0.2637,-1.7251,1
18960,-0.1826,0.0748,1.0298,3.3107,-0.6696,-2.0218,1
18980,-0.0233,0.0997,1.0185,4.0174,-1.3586,-1.6460,1
19000,-0.0008,0.0848,1.0185,4.1377,-1.9178,-2.5674,1
19020,0.1038,0.0943,0.9973,5.6038,-2.1218,-2.3532,1
19040,0.1702,0.0884,1.0052,4.1032,-2.2891,-2.2101,1
19060,0.2220,0.0199,0.9832,5.2173,-3.0909,-2.3897,1
19080,0.2399,0.0191,0.9480,3.8050,-2.8538,-2.2888,1
19100,0.2810,0.0288,0.9900,3.5263,-3.2524,-2.4089,1
19120,0.3168,0.0395,0.9614,3.3397,-2.8286,-2.6607,1
19140,0.2953,-0.0520,0.9436,3.0885,-3.0483,-2.3272,1
19160,0.2709,-0.0618,0.9719,1.6714,-2.0556,-2.8060,1
19180,0.2253,-0.0824,0.9864,1.7171,-2.6381,-2.1410,1
19200,0.1772,-0.0604,0.9708,0.5477,-2.0054,-2.4767,1
19220,0.1292,-0.0856,0.9978,-0.1308,-0.7894,-2.4009,1
19240,0.0585,-0.1094,1.0091,-0.4991,-0.9707,-2.4157,1
19260,-0.0367,-0.0725,0.9953,-0.6933,-0.4670,-1.6235,1
19280,-0.1146,-0.0695,1.0200,0.3221,-0.9370,-2.1559,1
19300,-0.2251,-0.1330,1.0316,-1.3069,0.2478,-2.1350,1
19320,-0.1382,-0.0636,1.0375,-2.3056,1.0240,-2.0815,1
19340,-0.2838,0.0053,1.0470,-2.3292,0.3418,-2.0139,1
19360,-0.2136,-0.0224,1.0423,-2.0032,1.9223,-2.0428,1
19380,-0.3725,0.0221,1.0072,-3.1747,1.6501,-1.7443,1
19400,-0.2843,0.0343,0.9943,-2.9224,2.2644,-2.0322,1
19420,-0.2566,0.0490,1.0039,-3.1261,2.6688,-1.4221,1
19440,-0.2385,0.0853,0.9946,-4.4360,2.0747,-0.8013,1
19460,-0.1814,0.0647,0.9884,-5.0766,2.3258,-1.7133,1
19480,-0.0530,0.0741,1.0199,-5.0611,2.5567,-1.0811,1
19500,0.0073,0.0787,0.9807,-5.0872,2.2315,-1.2811,1
19520,0.0079,0.0747,0.9655,-4.8434,3.2064,-0.1992,1
19540,0.1345,0.0358,0.9632,-4.7185,2.0632,-0.5996,1
19560,0.1858,0.0563,0.9669,-4.0590,2.1602,-0.4840,1
19580,0.2914,0.0247,0.9593,-3.7149,1.2077,0.0662,1
19600,0.2132,0.0612,1.0026,-4.5409,0.4389,0.6524,1
19620,0.2773,-0.0144,0.9683,-3.4908,0.4967,0.5453,1
19640,0.2527,-0.0534,1.0185,-2.2644,-0.6316,0.8333,1
19660,0.2726,-0.0121,1.0189,-3.9246,-0.5191,1.0021,1
19680,0.2043,-0.0667,1.0235,-3.6557,-0.2107,0.5850,1
19700,0.1915,-0.0749,1.0483,-1.1469,-1.5510,0.7538,1
19720,0.1344,-0.1286,1.0394,-1.5026,-1.3195,1.2309,1
19740,0.0569,-0.0873,1.0005,-0.7990,-1.9602,1.3865,1
19760,-0.0022,-0.0796,1.0066,-0.1951,-2.5263,0.7886,1
19780,-0.0602,-0.0731,1.0315,-0.1051,-2.2429,2.2902,1
19800,-0.2160,-0.0543,1.0038,0.4639,-2.7251,1.9996,1
19820,-0.2492,-0.0294,0.9690,1.0192,-2.9383,1.8759,1
19840,-0.2929,-0.0189,0.9929,2.9261,-3.0155,2.1573,1
19860,-0.3081,0.0324,0.9652,4.1316,-2.8133,1.6608,1
19880,-0.2584,0.0087,0.9850,4.0147,-2.4585,1.9809,1
19900,-0.2560,0.0278,0.9803,2.3483,-2.1104,2.0399,1
19920,-0.2037,0.0632,0.9746,4.2352,-2.3905,2.7787,1
19940,-0.1456,0.0750,0.9989,3.8425,-1.8696,2.3511,1
19960,-0.1315,0.0694,0.9898,4.5425,-1.4832,2.5284,1
19980,-0.0487,0.0913,1.0077,3.7341,-0.3145,2.0421,1
20000,-0.0334,0.0749,0.9859,4.1712,-0.0964,2.6511,1
20020,0.0650,0.0491,1.0267,3.9623,0.4986,2.5271,1
20040,0.1505,0.1051,1.0254,3.8418,2.0143,2.4311,1
20060,0.2009,0.0887,1.0287,4.4235,2.6324,2.2563,1
20080,0.2438,0.0510,1.0450,3.0395,1.0567,2.1155,1
20100,0.2363,0.0176,1.0375,3.1061,1.6695,2.2523,1
20120,0.3253,-0.0350,1.0401,3.7707,3.0399,2.5241,1
20140,0.3607,-0.0254,1.0243,2.6185,2.8299,2.5333,1
20160,0.2311,-0.0590,1.0358,3.0232,2.7966,2.2328,1
20180,0.2414,-0.0214,1.0071,2.5314,4.1887,2.0477,1
20200,0.1778,-0.0555,0.9908,2.8234,3.0279,1.6676,1
20220,0.0854,-0.0573,0.9999,0.5448,3.0624,1.1682,1
20240,0.0431,-0.0784,1.0045,-0.1799,1.9973,1.2142,1
20260,-0.0777,-0.0572,0.9964,-0.0904,2.8123,1.3767,1
20280,-0.1133,-0.0917,0.9656,-1.7719,2.0020,1.1704,1
20300,-0.1540,-0.0706,0.9681,-1.9133,1.4777,1.2433,1
20320,-0.2655,-0.0553,0.9774,-2.3468,0.6983,0.9246,1
20340,-0.3055,-0.0299,0.9666,-1.7735,1.5027,0.4258,1
20360,-0.2787,-0.0343,1.0039,-3.6276,0.1409,0.2469,1
20380,-0.3056,-0.0191,1.0101,-3.7825,-0.3507,0.2275,1
20400,-0.2888,0.0314,0.9960,-3.5144,-0.4157,-0.0827,1
20420,-0.2181,0.0842,1.0041,-4.8164,-1.4396,-0.1944,1
20440,-0.1493,0.0664,1.0116,-4.8723,-1.5076,-0.3822,1
20460,-0.1432,0.1018,1.0210,-4.3862,-2.3663,-0.1853,1
20480,-0.0569,0.0819,1.0310,-4.6876,-3.3118,-0.4903,1
20500,0.0568,0.0688,1.0169,-5.0224,-2.5271,-0.6071,1
20520,0.0699,0.0651,1.0254,-5.4033,-2.9068,-0.6500,1
20540,0.1070,0.0421,1.0407,-4.7257,-2.4867,-1.1223,1
20560,0.2005,0.0761,0.9949,-4.1045,-3.1035,-1.6308,1
20580,0.2634,0.0419,0.9961,-4.6695,-2.0591,-1.1232,1
20600,0.3142,0.0205,0.9630,-2.4688,-2.5605,-1.7545,1
20620,0.3119,0.0337,0.9802,-2.5132,-1.7252,-1.9877,1
20640,0.2745,0.0061,0.9336,-2.9581,-2.4677,-1.9332,1
20660,0.2625,-0.0469,0.9624,-3.0695,-0.3474,-1.3453,1
20680,0.1963,-0.0194,0.9642,-1.8385,-0.9196,-2.2080,1
20700,0.2059,-0.0698,0.9657,-2.1733,-0.7781,-2.5956,1
20720,0.1108,-0.1124,0.9744,-0.0212,0.6904,-2.1939,1
20740,0.0350,-0.0442,0.9940,-0.4792,0.0311,-2.1348,1
20760,-0.0127,-0.1044,0.9999,0.0644,1.0913,-3.0552,1
20780,-0.1171,-0.0604,0.9958,0.8747,1.2990,-2.2435,1
20800,-0.1828,-0.0954,1.0344,1.9479,1.7814,-2.2317,1
20820,-0.2150,-0.0420,0.9967,2.5200,2.1483,-2.5043,1
20840,-0.1923,-0.0311,1.0217,1.0880,3.3069,-2.8028,1
20860,-0.3248,-0.0248,1.0511,3.3324,2.8045,-2.2954,1
20880,-0.3174,0.0090,1.0302,3.8616,3.4161,-2.2148,1
20900,-0.2962,0.0456,1.0240,2.9914,2.8126,-2.2992,1
20920,-0.2260,0.0438,1.0007,3.9774,2.9660,-2.2173,1
20940,-0.1778,0.0901,1.0014,3.8143,2.2776,-1.9989,1
20960,-0.1011,0.0713,0.9971,5.2387,2.7193,-2.0007,1
20980,-0.1103,0.1035,0.9772,3.7841,2.0049,-2.2181,1
21000,-0.0066,0.0554,0.9967,5.1766,0.8871,-1.6481,1
21020,0.0503,0.1077,0.9745,4.4818,1.2281,-1.4662,1
21040,0.1073,0.0935,0.9878,4.7884,1.8650,-1.8664,1
21060,0.2341,0.0631,0.9885,4.1794,0.1265,-1.1840,1
21080,0.2386,0.0143,0.9642,4.3148,0.4004,-1.4016,1
21100,0.3249,-0.0048,0.9702,3.4674,-0.7976,-1.2608,1
21120,0.3201,-0.0050,0.9863,3.2533,-1.6598,-1.1638,1
21140,0.2904,-0.0208,0.9937,2.9138,-1.8963,-0.5852,1
21160,0.2364,-0.0556,1.0447,1.7884,-2.7171,-0.5784,1
21180,0.1688,-0.0630,1.0446,0.9890,-3.3409,-1.0758,1
21200,0.2033,-0.0458,1.0128,1.8005,-2.0889,0.0865,1
21220,0.1030,-0.1389,1.0142,0.5871,-3.0127,-0.3272,1
21240,0.0712,-0.0587,1.0270,0.9416,-2.8275,-0.0711,1
21260,-0.0104,-0.0876,1.0605,-1.1456,-3.2202,0.0525,1
21280,-0.0973,-0.0532,1.0261,-1.6966,-2.5170,0.4973,1
21300,-0.2346,-0.0729,0.9967,-1.7894,-3.1207,0.6925,1
21320,-0.2276,-0.0882,1.0256,-2.7763,-2.3005,0.3818,1
21340,-0.2824,-0.0262,1.0108,-1.6090,-2.1450,0.8907,1
21360,-0.3078,-0.0125,0.9999,-2.9274,-2.5135,1.0664,1
21380,-0.2885,-0.0107,0.9650,-2.3948,-1.0220,1.0610,1
21400,-0.3194,0.0081,0.9964,-3.5580,-0.9938,1.4389,1
21420,-0.2777,0.0842,0.9923,-4.2233,-0.5089,0.6495,1
21440,-0.2498,0.0335,0.9720,-4.3797,-0.3043,1.4915,1
21460,-0.1294,0.0915,0.9427,-4.4356,0.1964,1.9782,1
21480,-0.0511,0.0656,0.9640,-4.7413,0.2976,1.9307,1
21500,-0.0082,0.1133,0.9659,-4.8715,1.0854,1.6404,1
21520,0.0391,0.1111,0.9806,-4.3900,1.9896,1.6615,1
21540,0.1395,0.0932,0.9826,-3.8732,2.1094,1.9866,1
21560,0.2213,0.0497,1.0109,-4.3728,2.8039,1.4943,1
21580,0.1984,0.0630,1.0344,-4.4897,2.8051,2.3615,1
21600,0.3061,-0.0209,1.0120,-3.8401,3.3105,3.0741,1
21620,0.2926,-0.0281,1.0352,-2.4878,3.0294,2.0910,1
21640,0.3234,-0.0009,1.0145,-2.6396,3.3243,2.7424,1
21660,0.2695,-0.0469,1.0459,-3.1373,2.8789,1.9882,1
21680,0.2631,-0.0636,1.0412,-1.6212,1.8543,2.8244,1
21700,0.2229,-0.0516,1.0030,-1.5742,2.1191,2.1700,1
21720,0.1612,-0.0802,0.9647,-0.6396,1.4825,2.3292,1
21740,0.0265,-0.0699,1.0123,-0.1127,1.0214,2.2965,1
21760,-0.0370,-0.1085,0.9949,0.5586,1.3660,2.6296,1
21780,-0.1310,-0.0640,0.9641,1.2608,-0.0817,1.8773,1
21800,-0.1679,-0.1370,0.9466,1.2841,-0.3389,1.9923,1
21820,-0.2785,-0.0770,0.9761,2.2651,-0.8984,2.3571,1
21840,-0.2595,-0.0563,0.9665,1.5695,-1.4274,2.2392,1
21860,-0.2741,0.0168,0.9697,3.6761,-1.9108,2.2317,1
21880,-0.3001,0.0226,1.0027,3.1643,-2.1143,2.0514,1
21900,-0.2893,-0.0039,1.0211,3.3587,-2.4615,1.8766,1
21920,-0.2716,0.0240,1.0023,2.8675,-2.9048,1.4597,1
21940,-0.2135,0.0286,1.0321,4.2461,-2.2878,1.1566,1
21960,-0.1709,0.0853,1.0138,3.6520,-2.3365,0.8894,1
21980,-0.1298,0.1190,1.0165,4.0998,-3.7658,1.4338,1
22000,-0.0387,0.0914,1.0422,4.7530,-2.8800,0.2311,1
22020,0.0503,0.0917,1.0182,4.5865,-2.3401,0.8563,1
22040,0.1077,0.1316,1.0398,4.3576,-1.8686,1.1000,1
22060,0.1622,0.0602,0.9879,4.2996,-1.8336,0.1991,1
22080,0.2337,-0.0010,1.0220,4.8166,-1.8415,0.1622,1
22100,0.2383,0.0388,1.0016,3.1831,-1.4465,-0.2688,1
22120,0.3109,-0.0258,0.9918,3.2555,-1.0937,0.2083,1
22140,0.2691,-0.0329,0.9736,3.9475,0.1734,-0.7898,1
22160,0.3046,-0.0335,0.9839,2.2045,0.1134,-0.5827,1
22180,0.2148,-0.0138,0.9549,2.8377,0.9127,-0.7657,1
22200,0.2013,-0.0879,0.9835,-0.2339,1.1213,-1.2991,1
22220,0.0728,-0.0888,0.9761,1.2648,1.9915,-1.3823,1
22240,0.0487,-0.0863,0.9872,0.7487,2.2765,-1.6057,1
22260,-0.0572,-0.1025,0.9742,-0.1217,2.8944,-1.4982,1
22280,-0.1100,-0.0802,0.9791,-1.3985,2.0130,-1.8293,1
22300,-0.1621,-0.0897,0.9927,-1.1107,3.1812,-2.0734,1
22320,-0.2012,-0.0303,0.9890,-2.4103,3.5358,-1.9124,1
22340,-0.3380,-0.0719,1.0114,-3.1090,2.7740,-1.9668,1
22360,-0.2508,-0.0238,1.0387,-2.0112,3.4744,-1.9880,1
22380,-0.3583,0.0167,1.0435,-3.3290,3.3956,-1.9006,1
22400,-0.2683,0.0539,1.0349,-5.1363,2.0869,-1.8723,1
22420,-0.2775,0.0429,1.0133,-2.8730,2.6978,-2.5568,1
22440,-0.2009,0.0493,1.0341,-3.8782,1.8761,-2.2393,1
22460,-0.0565,0.0542,0.9926,-4.5945,0.3283,-2.8205,1
22480,-0.1046,0.0650,0.9953,-4.1536,0.2973,-2.4470,1
22500,0.0268,0.0716,0.9960,-4.2805,-0.8737,-3.1155,1
22520,0.0850,0.0990,1.0213,-4.3697,-0.1562,-2.4518,1
22540,0.1534,0.1189,0.9499,-4.1105,-0.0729,-2.2882,1
22560,0.2549,0.0505,0.9746,-4.1639,-2.5088,-2.6893,1
22580,0.2204,0.0680,0.9841,-3.7490,-1.5703,-2.3409,1
22600,0.3214,0.0280,0.9709,-3.7999,-2.0035,-2.3578,1
22620,0.3287,-0.0215,0.9558,-2.8679,-2.6504,-2.2947,1
22640,0.3214,-0.0314,0.9744,-2.0289,-2.1364,-1.6017,1
22660,0.2630,-0.0088,0.9707,-2.9554,-4.0178,-1.4746,1
22680,0.2052,-0.0604,0.9804,-1.4989,-3.1688,-2.2598,1
22700,0.1896,-0.1072,0.9912,-2.6547,-3.5876,-1.6960,1
22720,0.0515,-0.1192,1.0131,-1.1694,-1.9066,-1.0706,1
22740,0.0116,-0.0759,1.0323,-0.6410,-3.2456,-1.4866,1
22760,-0.0428,-0.0997,1.0334,-0.1679,-2.7812,-1.3038,1
22780,-0.0989,-0.1119,1.0436,-0.2191,-2.1432,-1.2599,1
22800,-0.1954,-0.0864,1.0575,0.8800,-0.3467,-0.8907,1
22820,-0.2284,-0.0459,1.0641,1.3199,-1.4670,-1.0818,1
22840,-0.2705,-0.0797,1.0203,3.4273,-0.3825,-0.7719,1
22860,-0.3132,0.0047,0.9994,3.9762,0.9454,-0.4318,1
22880,-0.2998,0.0304,1.0187,2.7968,0.3622,-0.7274,1
22900,-0.2730,0.0438,0.9723,3.3675,0.4981,-0.4203,1
22920,-0.2368,0.0306,0.9791,2.9670,1.6597,0.0169,1
22940,-0.2272,0.0611,0.9791,3.6951,1.3337,0.7525,1
22960,-0.1635,0.0765,0.9869,6.4761,1.7988,0.5253,1
22980,-0.0958,0.0742,0.9592,3.7891,2.6283,0.1252,1
23000,0.0284,0.0913,0.9778,4.2203,2.6879,0.8279,1
23020,0.0397,0.0786,0.9631,3.9302,2.0220,1.3133,1
23040,0.1239,0.1068,0.9990,3.5870,2.5081,1.8443,1
23060,0.2579,0.0649,0.9957,3.8055,3.1264,1.0195,1
23080,0.1923,0.0165,1.0018,3.2647,2.7450,1.0638,1
23100,0.2618,0.0483,1.0148,3.6348,2.9285,1.6740,1
23120,0.3428,-0.0054,1.0130,2.4997,2.0195,1.9542,1
23140,0.3337,0.0062,0.9988,3.5183,0.9965,2.0597,1
23160,0.2604,-0.0215,1.0093,3.1139,0.7195,1.7050,1
23180,0.2012,-0.0995,1.0312,2.9997,2.0912,2.0392,1
23200,0.2098,-0.0672,1.0346,1.1853,0.4638,2.2644,1
23220,0.0931,-0.0855,1.0207,1.3391,-0.6304,2.1688,1
23240,0.0950,-0.0614,1.0340,0.2972,-0.5284,2.5536,1
23260,0.0092,-0.1361,0.9848,0.5031,-1.2987,2.1074,1
23280,-0.1481,-0.0970,0.9737,0.4114,-1.6493,2.3343,1
23300,-0.1587,-0.0497,0.9997,-0.7464,-2.3375,2.2917,1
23320,-0.2081,-0.0700,0.9778,-1.6767,-2.0514,1.8637,1
23340,-0.2500,-0.0439,0.9832,-1.9451,-1.9580,2.8053,1
23360,-0.2543,0.0178,0.9745,-2.8491,-2.4828,2.6075,1
23380,-0.3087,0.0154,0.9703,-3.7927,-2.4001,2.3795,1
23400,-0.2239,-0.0112,0.9663,-3.6210,-2.4823,2.4444,1
23420,-0.2440,0.0212,0.9638,-3.7499,-3.5287,2.1135,1
23440,-0.1903,0.0420,1.0137,-3.4496,-3.4529,1.9288,1
23460,-0.2131,0.0601,1.0107,-4.6070,-2.2844,1.6748,1
23480,-0.0507,0.0738,1.0091,-4.5202,-2.7331,1.6965,1
23500,0.0290,0.0996,1.0334,-4.3052,-1.6990,1.4238,1
23520,0.0665,0.0865,1.0538,-4.0523,-0.6201,2.0091,1
23540,0.1232,0.0817,1.0323,-4.9221,-0.9918,1.6460,1
23560,0.2535,0.0157,1.0481,-4.7461,-0.9185,1.9298,1
23580,0.2753,0.0783,1.0400,-2.7075,0.4774,1.3880,1
23600,0.2956,0.0577,1.0114,-4.0317,0.6070,0.6546,1
23620,0.3036,-0.0396,1.0166,-2.7612,1.0285,1.6328,1
23640,0.2509,0.0117,1.0169,-3.8980,2.9217,0.9479,1
23660,0.2451,-0.0721,0.9937,-2.4877,2.1541,0.7094,1
23680,0.2502,-0.0667,0.9585,-2.0056,1.3837,0.7322,1
23700,0.1470,-0.0689,0.9992,-1.9598,3.1920,0.3197,1
23720,0.1630,-0.0924,0.9609,-0.4309,2.7000,0.0184,1
23740,0.0233,-0.0904,0.9905,-1.4430,2.9988,0.2779,1
23760,-0.0318,-0.0579,0.9693,0.1718,3.2549,-0.0607,1
23780,-0.1221,-0.0713,0.9637,0.4765,2.6585,0.1351,1
23800,-0.2730,-0.0633,0.9800,0.3821,2.8539,-0.3070,1
23820,-0.2135,-0.1210,1.0081,1.4734,2.7580,-0.4037,1
23840,-0.2977,-0.0225,0.9912,1.1684,2.6334,-1.0313,1
23860,-0.3203,-0.0265,1.0108,2.8340,1.9484,-1.3688,1
23880,-0.3217,0.0029,1.0442,3.2121,1.7315,-1.1181,1
23900,-0.2998,0.0219,1.0206,4.0028,1.3646,-1.1781,1
23920,-0.2177,0.0251,1.0218,3.5088,0.3675,-1.5427,1
23940,-0.1835,0.0433,1.0306,4.5961,-1.2305,-0.9393,1
23960,-0.1530,0.0303,1.0311,4.3787,-0.8557,-1.4103,1
23980,-0.0522,0.0943,1.0312,4.4019,-0.5124,-2.2736,1
24000,0.0042,0.0916,1.0298,3.9937,-2.5480,-1.8946,1
24020,0.0830,0.1229,0.9899,5.1573,-1.0956,-2.1557,1
24040,0.1058,0.0691,0.9995,4.6969,-2.7579,-1.6650,1
24060,0.1719,0.0239,1.0063,2.8192,-2.8376,-1.2733,1
24080,0.2529,0.0213,0.9803,3.9129,-2.8426,-2.0744,1
24100,0.2541,0.0683,0.9783,4.0767,-3.2767,-1.9387,1
24120,0.2917,0.0123,0.9569,2.6822,-2.6711,-2.4960,1
24140,0.2691,-0.0323,0.9806,2.4910,-2.9285,-2.3834,1
24160,0.2139,-0.0736,0.9776,1.9690,-2.2060,-2.1092,1
24180,0.2527,-0.0137,0.9766,2.3053,-2.6677,-1.6613,1
24200,0.2358,-0.0725,0.9913,2.2062,-2.1199,-2.5781,1
24220,0.1367,-0.0818,0.9975,0.3427,-2.4121,-2.2808,1
24240,0.0647,-0.0947,1.0261,-0.1398,-1.6487,-2.3290,1
24260,-0.0401,-0.0708,1.0022,0.5383,0.2123,-2.2647,1
24280,-0.0729,-0.1090,1.0377,-0.2149,0.2378,-2.1889,1
24300,-0.2650,-0.0882,1.0178,-1.9775,0.4310,-2.2288,1
24320,-0.2559,-0.0828,1.0191,-1.2431,0.5937,-2.1645,1
24340,-0.2851,-0.0302,1.0362,-4.2380,1.8385,-1.4747,1
24360,-0.3262,-0.0402,1.0190,-3.3220,1.9246,-2.3742,1
24380,-0.3329,0.0426,1.0055,-2.5343,2.3724,-2.2075,1
24400,-0.2663,0.0250,1.0042,-3.4936,2.7466,-1.3175,1
24420,-0.2180,0.0580,0.9809,-4.2276,4.0996,-1.1688,1
24440,-0.1343,0.0991,0.9954,-4.0031,2.9153,-1.7560,1
24460,-0.1440,0.1079,0.9740,-4.1115,3.3811,-1.3490,1
24480,-0.0881,0.0627,0.9636,-5.2371,2.5662,-0.4856,1
24500,-0.0275,0.0930,0.9639,-3.7927,3.4432,-0.4824,1
24520,0.0838,0.0816,0.9521,-3.2984,2.3050,-0.3685,1
24540,0.1763,0.0655,0.9873,-3.9001,3.1364,-0.5311,1
24560,0.1668,0.0535,0.9795,-4.1491,1.8210,-0.7836,1
24580,0.2674,0.0956,0.9906,-3.5779,1.8331,0.0890,1
24600,0.3133,0.0373,0.9878,-4.1182,0.9923,0.2449,1
24620,0.2899,0.0132,1.0088,-2.7805,1.1764,0.3541,1
24640,0.2555,-0.0251,1.0124,-3.9699,0.7003,0.5515,1
24660,0.2829,-0.0055,1.0105,-2.0668,-0.5001,0.6288,1
24680,0.2080,-0.0174,1.0205,-1.4963,-1.8066,1.2094,1
24700,0.2079,-0.0705,1.0261,-1.1506,-0.4153,0.4929,1
24720,0.1339,-0.1056,1.0294,-0.9919,-2.0758,1.1794,1
24740,0.0036,-0.0646,0.9999,0.0413,-2.4097,0.9852,1
24760,-0.0315,-0.1267,1.0217,-0.5712,-2.3650,1.2056,1
24780,-0.1240,-0.0766,1.0015,0.8084,-3.4842,1.8101,1
24800,-0.1234,-0.0058,1.0051,1.8635,-3.7481,2.2003,1
24820,-0.2079,-0.0690,1.0126,1.7633,-3.2059,2.0109,1
24840,-0.3033,-0.0138,0.9691,1.7812,-3.3694,2.2043,1
24860,-0.3132,-0.0492,0.9683,2.8492,-3.3604,1.7279,1
24880,-0.2361,-0.0150,0.9674,3.0600,-2.8002,2.3450,1
24900,-0.2569,0.0205,0.9515,4.4052,-2.3544,2.7506,1
24920,-0.3207,0.0529,0.9998,3.7314,-2.0426,2.3803,1
24940,-0.2221,0.0581,0.9700,3.8075,-0.9579,2.4772,1
24960,-0.1370,0.0983,0.9778,3.8941,-1.3051,2.3733,1
24980,-0.1064,0.0752,0.9826,5.7392,-1.7733,2.3393,1
25000,0.0518,0.0929,1.0113,4.5599,-0.3003,1.7274,1
25020,0.0808,0.0686,0.9976,4.1651,1.3103,3.1146,1
25040,0.1510,0.0677,1.0006,4.6397,1.8362,2.2986,1
25060,0.1340,0.0817,1.0397,3.2325,1.5903,2.4742,1
25080,0.2511,0.0292,1.0442,3.7014,1.2728,1.6768,1
25100,0.3231,0.0426,1.0313,3.3764,2.0735,1.9087,1
25120,0.2865,-0.0452,1.0167,3.0938,2.8850,2.1466,1
25140,0.3185,0.0155,1.0385,3.1507,2.8343,1.7792,1
25160,0.2936,0.0020,1.0202,3.5616,2.2736,1.6302,1
25180,0.2568,-0.0510,1.0257,1.9067,2.6092,1.8042,1
25200,0.1304,-0.0999,1.0108,1.9142,3.1102,1.2332,1
25220,0.0997,-0.1131,1.0045,0.4930,2.3144,1.6297,1
25240,0.0184,-0.0537,0.9679,-0.5570,1.6038,1.4736,1
25260,-0.0545,-0.1236,0.9910,0.1178,2.2501,1.7458,1
25280,-0.0906,-0.1034,0.9547,-0.3524,2.0614,1.2335,1
25300,-0.2017,-0.0582,0.9592,-1.4518,2.0964,0.8236,1
25320,-0.2783,-0.0826,0.9888,-1.7632,0.9048,0.7027,1
25340,-0.2569,-0.0587,0.9846,-2.8500,0.0467,0.4928,1
25360,-0.3059,-0.0180,0.9918,-5.0814,-0.4388,0.3913,1
25380,-0.2543,-0.0203,1.0002,-2.3833,-1.1900,0.4489,1
25400,-0.3094,0.0157,0.9954,-4.0797,0.1205,0.4040,1
25420,-0.2202,0.0600,0.9923,-3.7064,-1.0927,-0.2862,1
25440,-0.1764,0.0825,1.0514,-4.4347,-2.4920,-0.3193,1
25460,-0.1015,0.0350,0.9973,-4.3050,-2.5580,-0.3880,1
25480,-0.0462,0.0739,1.0019,-3.2378,-3.0956,-0.8853,1
25500,0.0331,0.0808,1.0276,-4.2103,-2.3656,-0.8417,1
25520,0.1202,0.0359,1.0354,-4.9682,-2.3539,-0.8689,1
25540,0.1243,0.0948,1.0304,-3.9735,-3.4612,-1.2213,1
25560,0.2052,0.0646,1.0194,-5.3929,-2.7814,-1.3216,1
25580,0.2281,0.0304,0.9953,-6.1040,-3.0908,-1.6489,1
25600,0.3013,0.0085,0.9857,-2.7152,-2.0855,-1.2591,1
25620,0.2844,0.0187,0.9771,-3.3980,-2.0282,-1.8439,1
25640,0.3395,-0.0207,0.9835,-1.9950,-1.3595,-2.2129,1
25660,0.2848,-0.0179,0.9841,-3.0792,-1.6744,-1.6072,1
25680,0.2083,-0.0646,0.9938,-1.9447,-1.2182,-2.2734,1
25700,0.1863,-0.1048,0.9691,-1.1906,0.2086,-1.9029,1
25720,0.0890,-0.0554,0.9739,-1.5846,0.0733,-1.7528,1
25740,0.0426,-0.0890,1.0108,-1.1414,0.0943,-2.7377,1
25760,-0.0264,-0.0853,1.0186,0.4286,0.9923,-2.3083,1
25780,-0.1069,-0.1238,1.0459,1.1551,1.7337,-2.1671,1
25800,-0.1551,-0.0762,1.0050,1.7502,2.2272,-2.6240,1
25820,-0.1886,-0.0503,1.0331,2.7512,2.4146,-2.3019,1
25840,-0.2471,-0.0557,1.0283,2.4865,2.2513,-1.7040,1
25860,-0.3369,-0.0480,1.0496,3.2964,2.4139,-2.2057,1
25880,-0.2554,0.0049,1.0681,2.2459,3.2931,-2.0130,1
25900,-0.2586,0.0229,1.0210,3.9071,3.3612,-2.1439,1
25920,-0.2221,0.0238,1.0154,3.3794,2.7411,-1.9685,1
25940,-0.2021,0.1282,1.0132,4.2198,2.7935,-2.3999,1
25960,-0.1463,0.1059,1.0025,3.8825,2.0755,-2.2666,1
25980,-0.0724,0.1158,0.9710,4.2726,2.2259,-2.5925,1
26000,-0.0250,0.0737,0.9704,4.6151,1.6911,-2.1082,1
26020,0.0874,0.1285,1.0001,3.3109,1.5710,-1.8833,1
26040,0.1492,0.0693,0.9730,4.4495,0.5583,-1.9766,1
26060,0.1919,0.0712,0.9790,4.6960,0.0787,-1.4907,1
26080,0.2822,0.0762,0.9711,3.8108,-0.1400,-1.7799,1
26100,0.2795,0.0457,0.9865,3.4784,-0.6481,-1.5334,1
26120,0.3205,0.0038,0.9801,3.0633,-1.2714,-1.2641,1
26140,0.3144,-0.0264,1.0172,3.7475,-2.1030,-0.9461,1
26160,0.2519,-0.0462,1.0330,2.2267,-1.9458,-0.6364,1
26180,0.2011,-0.0779,0.9943,1.3844,-3.7315,-0.4626,1
26200,0.2380,-0.0693,0.9993,1.0049,-2.9210,-0.7550,1
26220,0.1362,-0.0642,1.0091,1.2783,-2.2091,0.2999,1
26240,0.1236,-0.1109,1.0720,0.0700,-3.2550,0.0077,1
26260,-0.0551,-0.0797,1.0098,-0.4258,-2.4099,0.0733,1
26280,-0.1062,-0.0723,1.0440,-1.8364,-2.6331,0.1904,1
26300,-0.1713,-0.0474,1.0026,-1.9982,-3.5854,0.2850,1
26320,-0.1912,-0.0603,0.9923,-2.2074,-3.1186,0.2885,1
26340,-0.2598,-0.0665,1.0197,-2.4539,-2.0694,0.7153,1
26360,-0.2715,0.0019,0.9983,-2.5295,-1.7972,1.1296,1
26380,-0.3095,0.0057,0.9801,-3.5547,-1.5532,1.2700,1
26400,-0.2460,0.0559,0.9580,-2.8671,-0.8892,1.4662,1
26420,-0.2805,0.0516,0.9767,-4.8341,0.0477,1.8388,1
26440,-0.2106,0.0983,0.9672,-3.6742,-0.6973,2.3014,1
26460,-0.0997,0.0720,0.9417,-4.1858,0.1691,1.8411,1
26480,-0.0623,0.0646,0.9923,-3.9812,1.7505,1.8325,1
26500,-0.0425,0.1135,0.9783,-5.3339,2.3718,2.5715,1
26520,0.0734,0.1390,0.9925,-4.6928,1.8772,2.5335,1
26540,0.1211,0.0965,0.9924,-4.6348,2.9554,2.0175,1
26560,0.1932,0.0928,1.0343,-3.7972,2.4511,2.0554,1
26580,0.2557,0.0559,1.0040,-3.5096,2.9534,1.7583,1
26600,0.2574,0.0157,1.0242,-2.5070,3.1013,2.0724,1
26620,0.3060,-0.0028,1.0340,-2.9320,3.5250,2.3557,1
26640,0.3439,0.0049,1.0193,-1.5425,3.0227,2.1373,1
26660,0.3210,0.0115,1.0270,-2.7134,2.6040,2.6137,1
26680,0.2695,-0.0437,1.0237,-1.0172,2.2639,2.7062,1
26700,0.1677,-0.0625,1.0127,-1.4241,1.8838,2.7845,1
26720,0.0884,-0.1014,1.0371,-0.2565,0.5659,2.1821,1
26740,-0.0168,-0.1121,0.9484,-0.3648,0.6602,2.3268,1
26760,-0.0864,-0.0873,0.9800,1.1837,1.3079,2.4886,1
26780,-0.1202,-0.0360,0.9551,0.0011,0.1130,2.8605,1
26800,-0.1824,-0.0772,0.9512,1.9581,0.0529,2.3399,1
26820,-0.2500,-0.0743,0.9508,1.9663,-1.3773,1.6568,1
26840,-0.2842,-0.0501,0.9626,2.6911,-1.3432,1.8191,1
26860,-0.2892,-0.0407,0.9759,2.9588,-2.5002,2.0890,1
26880,-0.3259,0.0078,0.9981,3.8358,-2.1971,1.5560,1
26900,-0.2569,0.0440,0.9797,3.1636,-3.4655,1.5760,1
26920,-0.2558,0.0755,1.0039,4.7439,-3.0890,1.7276,1
26940,-0.2212,0.0843,0.9863,4.3251,-3.8249,1.1545,1
26960,-0.1313,0.0664,1.0013,4.8663,-3.0444,0.9292,1
26980,-0.0734,0.1505,1.0413,5.1621,-2.7754,0.9614,1
27000,-0.0719,0.0737,1.0213,3.3751,-3.3740,0.1474,1
27020,0.0735,0.1068,1.0466,4.7134,-3.0804,-0.0120,1
27040,0.0918,0.0484,1.0150,4.2628,-2.8152,0.4920,1
27060,0.1984,0.0659,1.0407,3.4759,-1.8096,0.2067,1
27080,0.2433,0.0695,1.0296,3.3755,-1.6575,0.1145,1
27100,0.2771,0.0419,1.0117,4.7401,-1.7930,-0.1874,1
27120,0.2722,0.0201,0.9735,3.4881,-0.8827,-0.5509,1
27140,0.2513,-0.0280,1.0045,2.8533,0.2071,-0.0094,1
27160,0.2794,-0.0517,0.9870,2.0846,0.2237,-1.1400,1
27180,0.2589,-0.0666,0.9766,1.2944,1.1590,-1.0840,1
27200,0.1721,-0.0517,0.9824,1.3774,0.6496,-0.1240,1
27220,0.1628,-0.0663,0.9590,0.7751,1.6385,-0.8034,1
27240,0.0455,-0.1081,0.9661,0.9553,2.9828,-0.8780,1
27260,-0.0149,-0.0954,0.9303,-0.1043,2.5718,-1.4409,1
27280,-0.1088,-0.1155,0.9952,-0.4639,3.1100,-1.3368,1
27300,-0.1582,-0.0827,0.9952,-1.3359,2.9953,-1.4501,1
27320,-0.2118,-0.0075,1.0391,-1.8682,1.2733,-1.4973,1
27340,-0.2877,-0.0576,1.0091,-2.6792,3.2356,-2.4443,1
27360,-0.3270,-0.0086,1.0320,-2.4835,2.4748,-2.3669,1
27380,-0.3146,0.0114,1.0500,-4.5088,2.5112,-2.5584,1
27400,-0.3349,0.0510,1.0381,-3.3709,2.7260,-2.3754,1
27420,-0.2663,0.1007,1.0253,-3.5023,1.9440,-2.8462,1
27440,-0.2667,0.0517,1.0408,-3.7110,1.9222,-2.6350,1
27460,-0.0960,0.0557,1.0214,-4.3648,0.9557,-1.9712,1
27480,-0.0958,0.0548,1.0099,-4.7044,2.0449,-2.1902,1
27500,-0.0123,0.0647,0.9718,-5.1151,0.0517,-1.9718,1
27520,0.1083,0.0927,0.9855,-4.3032,-0.7585,-1.8777,1
27540,0.1389,0.0768,0.9485,-4.4759,-0.6575,-2.6931,1
27560,0.1828,0.0846,0.9529,-3.5493,-1.7503,-2.4554,1
27580,0.2196,0.0573,1.0079,-3.4745,-2.3301,-1.9510,1
27600,0.2758,0.0608,0.9822,-5.4065,-2.7634,-1.9481,1
27620,0.3040,-0.0189,0.9627,-4.4241,-2.6503,-1.4954,1
27640,0.3188,0.0357,0.9906,-2.2519,-1.9406,-1.9602,1
27660,0.2658,-0.0135,1.0067,-2.6992,-3.2848,-1.9348,1
27680,0.2561,-0.0382,0.9726,-0.7690,-3.2883,-1.9478,1
27700,0.1493,-0.0081,1.0074,-1.9012,-2.5581,-1.5188,1
27720,0.1048,-0.0635,1.0007,-1.1390,-3.7076,-2.0180,1
27740,0.0918,-0.0499,1.0221,0.7152,-2.6446,-1.5559,1
27760,-0.0359,-0.0923,1.0236,0.9686,-2.1952,-1.1228,1
27780,-0.0795,-0.0744,1.0152,0.0315,-1.8161,-1.2339,1
27800,-0.1737,-0.0732,1.0682,0.5924,-2.3407,-0.9222,1
27820,-0.2424,-0.0498,1.0349,2.6865,-1.6411,-1.0224,1
27840,-0.2586,-0.0198,1.0529,2.9846,-0.4762,-0.9512,1
27860,-0.3116,-0.0311,1.0216,3.0226,-0.5203,-0.6396,1
27880,-0.2731,0.0141,1.0108,3.5101,1.3310,-0.2599,1
27900,-0.2969,0.0058,0.9963,2.1762,1.0214,-0.2124,1
27920,-0.2942,0.0259,0.9958,4.0818,1.6213,0.1221,1
27940,-0.2026,0.0954,0.9783,3.3091,2.7316,0.3219,1
27960,-0.1622,0.0488,0.9776,4.2883,3.0672,0.2866,1
27980,-0.0997,0.1087,0.9839,4.5657,2.9512,0.5563,1
28000,0.0070,0.1180,0.9808,4.3984,3.4617,0.0322,1
28020,0.1362,0.0462,0.9665,4.4400,2.9055,1.2134,1
28040,0.1128,0.0851,0.9743,4.5357,2.9687,1.1040,1
28060,0.1889,0.0534,0.9961,4.7502,2.6626,0.9740,1
28080,0.2717,0.0474,1.0140,3.3999,1.9745,1.2263,1
28100,0.2623,0.0259,1.0015,4.0852,2.4033,1.5750,1
28120,0.3041,0.0103,1.0190,3.5867,1.8545,2.0846,1
28140,0.2876,-0.0483,1.0285,2.3577,2.1232,2.4531,1
28160,0.2479,-0.0303,1.0030,2.6836,0.9802,1.7181,1
28180,0.1981,-0.0398,1.0449,1.9300,0.5021,2.4869,1
28200,0.1538,-0.1247,1.0340,0.7277,0.8209,1.9888,1
28220,0.1285,-0.0500,1.0035,0.5037,-0.1848,2.6455,1
28240,0.0178,-0.1036,1.0210,-0.0638,-0.6042,1.7875,1
28260,0.0288,-0.1216,0.9997,-0.3020,-0.3134,1.9114,1
28280,-0.0509,-0.0655,1.0010,-1.4340,-1.3822,2.1346,1
28300,-0.1383,-0.0961,0.9839,-1.7237,-2.4980,2.6035,1
28320,-0.2151,-0.0284,0.9512,-1.2775,-1.2772,2.2615,1
28340,-0.2146,-0.0446,0.9520,-2.5946,-2.2098,2.1478,1
28360,-0.3127,-0.0026,0.9702,-2.5176,-2.7685,2.5318,1
28380,-0.3124,0.0112,0.9569,-2.5073,-3.2663,2.7016,1
28400,-0.2923,0.0327,0.9672,-4.2502,-3.7792,2.0080,1
28420,-0.2630,0.0533,0.9963,-4.2108,-3.3118,1.8402,1
28440,-0.1910,0.0988,1.0087,-3.7580,-2.4584,2.7178,1
28460,-0.1346,0.0944,0.9944,-5.1759,-2.7995,2.1288,1
28480,-0.0728,0.1334,1.0101,-3.7572,-2.3567,1.9489,1
28500,-0.0399,0.0722,1.0255,-4.4955,-1.3390,1.9960,1
28520,0.0640,0.1387,1.0231,-3.7667,-1.4919,2.0427,1
28540,0.1724,0.0839,0.9934,-4.3477,-0.2651,1.8659,1
28560,0.2187,0.0243,1.0192,-3.9372,-0.1164,1.9402,1
28580,0.2490,0.0580,1.0283,-4.5355,-0.7891,1.5643,1
28600,0.2905,0.0130,0.9988,-3.2627,0.6264,1.4530,1
28620,0.3553,-0.0457,1.0053,-3.4060,1.8978,0.6388,1
28640,0.3528,-0.0136,1.0053,-2.9872,1.5055,1.2814,1
28660,0.2394,-0.0300,0.9912,-2.8685,3.2716,0.9245,1
28680,0.2496,-0.0301,0.9662,-0.8646,1.3200,0.3954,1
28700,0.1626,-0.0589,0.9827,-1.4907,2.7091,0.1563,1
28720,0.0655,-0.0662,0.9839,0.1075,2.5406,0.4787,1
28740,0.0291,-0.0607,0.9857,-0.1558,2.8356,0.3787,1
28760,-0.0182,-0.1057,0.9505,0.1094,3.6703,0.2535,1
28780,-0.1438,-0.1117,0.9927,0.1618,3.1253,-0.4557,1
28800,-0.1278,-0.0913,0.9966,1.5015,2.8280,-1.0408,1
28820,-0.2972,-0.0627,0.9913,1.2409,1.9591,-0.4576,1
28840,-0.2546,-0.0416,1.0087,1.7067,1.9478,-0.3044,1
28860,-0.2926,-0.0138,1.0413,2.0288,2.0602,-0.4678,1
28880,-0.3092,0.0263,1.0010,2.8683,1.4164,-0.8901,1
28900,-0.2517,0.0655,1.0221,4.3567,0.5920,-1.0154,1
28920,-0.2471,0.0589,1.0344,2.9806,-0.2799,-1.4042,1
28940,-0.2560,0.0856,1.0431,4.3803,-0.8056,-1.1618,1
28960,-0.0834,0.0824,1.0364,4.4797,-0.5802,-1.7436,1
28980,-0.0756,0.1089,1.0597,3.6245,-1.3581,-2.1840,1
29000,0.0478,0.0759,0.9960,4.8829,-0.9784,-1.7426,1
29020,0.0808,0.0970,1.0301,3.9400,-2.2113,-2.1782,1
29040,0.1095,0.0710,1.0159,4.6986,-2.2018,-2.0876,1
29060,0.2211,0.0464,0.9850,4.2992,-2.6208,-2.1125,1
29080,0.2491,0.0392,1.0285,4.4875,-2.7290,-2.3430,1
29100,0.2718,0.0247,0.9791,2.5123,-3.7003,-2.5157,1
29120,0.3056,-0.0001,0.9930,2.3909,-3.3189,-1.9069,1
29140,0.2986,0.0044,1.0009,2.4521,-2.9203,-2.4696,1
29160,0.2128,-0.0458,0.9858,2.7356,-2.4029,-2.5119,1
29180,0.2115,-0.0269,0.9704,2.0925,-2.3312,-1.9585,1
29200,0.2055,-0.1039,0.9677,1.7379,-2.0826,-2.5176,1
29220,0.1409,-0.0792,0.9955,1.3111,-1.8080,-1.8811,1
29240,0.0140,-0.0735,1.0260,-0.5438,-1.3286,-1.9662,1
29260,-0.0029,-0.0934,1.0028,0.2910,-0.1402,-2.6024,1
29280,-0.1466,-0.0783,1.0310,-1.0227,0.1549,-2.3973,1
29300,-0.2398,-0.0830,1.0281,-1.5561,-0.1454,-2.6478,1
29320,-0.2466,-0.0358,1.0487,-1.2034,0.5240,-2.3562,1
29340,-0.2565,-0.0231,1.0353,-3.6197,0.9886,-1.9145,1
29360,-0.2801,0.0016,1.0279,-2.6699,1.8620,-1.5846,1
29380,-0.2900,0.0072,1.0154,-3.2316,2.4306,-1.5845,1
29400,-0.2739,0.0600,1.0150,-4.0300,2.9306,-1.9397,1
29420,-0.2857,0.0563,1.0093,-4.6904,2.6030,-1.5680,1
29440,-0.2200,0.0883,1.0024,-4.1955,2.6861,-1.6395,1
29460,-0.1019,0.0931,0.9724,-3.9269,2.9663,-1.1623,1
29480,-0.0616,0.0694,0.9708,-4.3916,2.7466,-0.7107,1
29500,0.0561,0.0719,0.9465,-5.7010,2.7855,-0.9406,1
29520,0.0808,0.0904,0.9460,-5.5534,2.7800,-0.5270,1
29540,0.1318,0.0391,0.9788,-3.5955,2.4840,-0.6446,1
29560,0.2067,0.0328,0.9923,-4.1349,1.2024,-0.3010,1
29580,0.2672,0.0402,0.9795,-4.6780,1.8305,-0.2247,1
29600,0.2206,0.0189,1.0073,-3.8727,1.8865,0.2794,1
29620,0.3096,0.0026,1.0012,-3.4384,0.4631,0.4900,1
29640,0.2666,-0.0427,0.9949,-1.6410,0.3140,0.6002,1
29660,0.2397,-0.0234,1.0182,-2.2827,-0.8902,0.7321,1
29680,0.2184,-0.0757,1.0371,-2.8386,-0.7087,1.0607,1
29700,0.1499,-0.0925,1.0261,-1.2214,-1.5140,1.1519,1
29720,0.1633,-0.0959,1.0040,-0.3477,-1.1256,1.3004,1
29740,0.0050,-0.0923,1.0100,0.1032,-2.8708,1.2465,1
29760,-0.0677,-0.0862,1.0156,0.3886,-2.5625,1.1869,1
29780,-0.0916,-0.0849,0.9983,2.1878,-2.5886,1.5748,1
29800,-0.1339,-0.0286,1.0016,1.5990,-3.3915,1.7054,1
29820,-0.2371,-0.0529,0.9990,2.2519,-2.8928,1.5051,1
29840,-0.2996,-0.0514,0.9807,3.0417,-3.4834,1.8693,1
29860,-0.2661,-0.0241,0.9843,2.7847,-2.7134,2.0049,1
29880,-0.2794,-0.0314,0.9668,3.4583,-2.3704,2.6065,1
29900,-0.2970,0.0633,0.9602,4.4378,-1.9437,1.9574,1
29920,-0.2441,0.0470,0.9804,3.8094,-2.0794,2.7024,1
29940,-0.2083,0.0854,0.9717,5.1840,-1.8161,2.1546,1
29960,-0.0988,0.0682,1.0058,4.8937,-1.1035,1.8288,1
29980,-0.0752,0.0896,1.0079,5.4176,-0.8333,2.6335,1
0,0.0612,0.3087,1.0199,8.8920,-0.1865,5.4754,2
20,0.3244,0.2799,1.0555,13.5479,2.8344,5.3057,2
40,0.4147,0.1625,1.0643,9.2948,2.5798,5.5906,2
60,0.7593,0.1023,1.0867,12.0548,5.1396,6.6100,2
80,0.7896,-0.0005,1.0429,9.3638,7.8982,4.9856,2
100,0.6463,-0.1564,1.0419,3.5602,7.9608,5.3732,2
120,0.3880,-0.1241,1.0082,2.9723,7.9562,4.7335,2
140,0.0825,-0.3564,0.9273,-1.9982,8.2066,3.8101,2
160,-0.3100,-0.1658,0.9377,-4.0544,4.9364,2.8853,2
180,-0.7227,-0.2085,0.9201,-4.9497,1.1195,3.3147,2
200,-0.7690,-0.0718,0.9732,-8.3143,1.0500,1.2980,2
220,-0.8654,0.0668,1.0602,-7.8416,-0.8332,0.3457,2
240,-0.8033,0.2240,1.1259,-8.0472,-4.6043,-1.0041,2
260,-0.5139,0.0949,1.0687,-8.9544,-6.2369,-0.6798,2
280,0.0098,0.2122,1.1605,-8.7890,-7.5192,-2.2089,2
300,0.3030,0.2060,1.0137,-9.8023,-6.5048,-2.4173,2
320,0.4466,0.0963,1.0261,-11.9571,-8.2275,-2.4748,2
340,0.8025,0.1766,0.9371,-10.4741,-6.0258,-3.6274,2
360,0.9210,0.0118,1.0129,-7.3505,-4.1281,-4.8688,2
380,0.7022,-0.0573,0.9852,-4.9417,-3.4605,-4.0521,2
400,0.2949,-0.2852,0.9549,-3.6856,-0.2760,-5.5568,2
420,0.1956,-0.2879,0.9804,0.4618,2.9143,-4.3544,2
440,-0.1794,-0.2149,0.9401,0.6537,3.5339,-5.3782,2
460,-0.5588,-0.1340,1.0441,3.7814,6.0262,-6.6765,2
480,-0.7582,-0.2113,1.0633,5.6620,6.5316,-6.0645,2
500,-0.7473,0.0149,1.1188,9.4062,7.5474,-6.6915,2
520,-0.6988,0.1389,1.1156,12.0378,7.2594,-6.2161,2
540,-0.4563,0.2533,1.0589,11.1884,5.6683,-6.6404,2
560,-0.1771,0.2544,0.9323,11.9767,6.5199,-6.3673,2
580,0.2383,0.2116,0.9890,11.0932,2.5780,-5.3233,2
600,0.4626,0.1693,0.9120,11.9470,1.2936,-4.4340,2
620,0.5643,0.1407,0.9243,12.9054,-2.0803,-5.1759,2
640,0.8479,0.0372,0.9176,6.3000,-1.4701,-1.8812,2
660,0.5448,-0.1177,1.0681,5.9833,-5.9542,-2.4696,2
680,0.4580,-0.2841,1.0867,1.4688,-6.6147,-0.7261,2
700,0.1311,-0.2874,1.1219,2.7298,-8.5481,0.3595,2
720,-0.0037,-0.2209,1.0429,-1.4150,-7.6254,0.0903,2
740,-0.3535,-0.3005,0.9996,-3.0585,-7.9712,0.5789,2
760,-0.8169,-0.1273,1.0188,-4.7355,-6.0169,1.7950,2
780,-0.6995,-0.1141,0.9972,-10.6096,-5.2501,1.7184,2
800,-0.6983,0.0700,0.9378,-11.4790,-2.3492,2.8185,2
820,-0.5525,0.1009,0.9738,-13.6940,-0.5157,5.4522,2
840,-0.3293,0.1390,0.9368,-12.5481,1.8483,3.8434,2
860,0.2717,0.2234,0.8814,-9.6041,5.7156,4.6345,2
880,0.3108,0.2534,0.9921,-14.7046,8.7895,5.3369,2
900,0.7669,0.2229,1.0049,-9.0390,6.9006,4.5283,2
920,0.7519,0.0704,1.0551,-9.7374,9.3698,6.3397,2
940,0.7074,-0.0148,1.0868,-11.3895,8.0745,6.6921,2
960,0.6180,-0.0959,1.0321,-4.5710,4.5322,6.7176,2
980,0.4969,-0.2808,0.9900,-3.7537,4.8175,5.4436,2
1000,0.0337,-0.1858,0.9967,-2.8295,3.6663,6.8367,2
1020,-0.2742,-0.1933,0.9468,4.2695,2.3585,5.0112,2
1040,-0.5302,-0.1585,0.9153,2.6509,-2.7181,4.5624,2
1060,-0.8120,-0.1300,0.9103,6.7051,-4.4634,3.5617,2
1080,-0.9015,0.0681,0.9269,10.9654,-6.0816,4.7479,2
1100,-0.5344,0.1212,0.9795,12.0868,-6.9156,3.4475,2
1120,-0.2741,0.1967,1.0467,11.6570,-9.1158,2.9317,2
1140,0.0615,0.2680,1.0751,11.7353,-7.3127,2.6919,2
1160,0.3432,0.2019,1.0918,12.5554,-7.9089,1.4127,2
1180,0.4103,0.1952,1.0851,12.2091,-5.5346,0.6892,2
1200,0.8748,0.1646,1.0187,9.9311,-1.6119,-1.6025,2
1220,0.7678,0.0554,1.0138,8.5266,-2.3595,-1.2786,2
1240,0.6283,-0.1074,0.9053,4.1399,-0.5858,-1.0766,2
1260,0.3967,-0.1926,0.9204,1.6400,2.6477,-3.6379,2
1280,0.0424,-0.2146,0.8967,3.5479,7.2666,-2.9173,2
1300,-0.2568,-0.1313,0.9506,-1.9272,7.5460,-3.6709,2
1320,-0.4967,-0.2054,0.9817,-3.3936,8.8179,-5.1419,2
1340,-0.8708,-0.1016,1.0707,-3.8563,6.3911,-5.6794,2
1360,-0.8296,0.1018,1.0726,-10.1993,7.6319,-6.0799,2
1380,-0.7990,0.0585,1.1480,-9.7142,5.5689,-6.2741,2
1400,-0.4469,0.2121,1.0700,-11.2289,4.4488,-6.2682,2
1420,-0.2281,0.1966,0.9402,-8.7038,2.0878,-7.0538,2
1440,0.1764,0.1917,1.0360,-14.1772,-1.2628,-6.4686,2
1460,0.5761,0.1783,0.8671,-11.6924,-4.8878,-6.1993,2
1480,0.8386,-0.0091,0.8884,-11.0162,-6.1502,-5.4430,2
1500,0.7861,0.0266,0.9037,-8.1174,-6.1947,-6.2883,2
1520,0.7864,-0.0988,1.0015,-6.7522,-7.4360,-5.3031,2
1540,0.5022,-0.1684,1.0250,-6.0642,-6.1962,-6.2349,2
1560,0.1442,-0.2385,1.0627,1.0179,-9.4252,-4.5473,2
1580,-0.3201,-0.2337,1.0851,3.6746,-5.6525,-2.6280,2
1600,-0.4235,-0.2220,1.0222,4.1482,-5.6446,-1.6888,2
1620,-0.7140,-0.0391,1.0388,6.5387,-1.2972,-1.9755,2
1640,-0.8330,0.0100,0.9819,6.2795,2.3942,-0.5384,2
1660,-0.7385,0.1949,0.9631,12.0413,3.4799,-1.1012,2
1680,-0.3998,0.2384,0.9323,12.3208,4.8437,1.2256,2
1700,-0.4385,0.1630,0.9595,11.4528,7.1350,0.3187,2
1720,0.2481,0.3143,0.9209,11.3288,9.0317,3.7917,2
1740,0.5050,0.3416,0.9233,10.2125,6.5466,3.3304,2
1760,0.6895,0.1189,1.0364,12.4874,5.5698,3.2189,2
1780,0.8593,0.0001,1.0147,10.6310,4.5845,4.1104,2
1800,0.7871,-0.1109,1.1057,6.1432,5.9770,4.8307,2
1820,0.6369,-0.1165,1.0534,1.4802,2.4711,5.4830,2
1840,0.3390,-0.2376,1.0404,5.4621,-2.1688,6.4118,2
1860,-0.0962,-0.2610,1.0057,-1.6624,-2.1188,7.2355,2
1880,-0.3478,-0.2037,0.9339,-2.1574,-2.3553,6.0102,2
1900,-0.6773,-0.1770,0.9172,-9.8404,-6.1306,5.7204,2
1920,-0.9147,0.0032,0.8770,-8.1910,-5.9084,5.2403,2
1940,-0.8975,0.0769,0.9752,-12.0008,-7.5094,6.6926,2
1960,-0.7811,0.2041,0.9956,-11.3568,-6.0740,6.8889,2
1980,-0.3324,0.1883,0.9656,-11.7711,-5.7588,5.3683,2
2000,-0.1758,0.3212,1.0546,-12.6074,-3.6737,6.3974,2
2020,0.1165,0.2450,1.0175,-10.9124,-2.3664,5.1464,2
2040,0.5765,0.0331,1.0604,-10.2070,1.1179,3.0798,2
2060,0.8570,0.0182,1.0718,-10.2977,2.5469,4.0403,2
2080,0.6877,-0.0885,1.0253,-3.8066,3.5023,4.2107,2
2100,0.8076,-0.1473,0.9610,-6.5552,6.2394,0.6602,2
2120,0.3793,-0.1145,0.9120,-3.3694,5.4685,1.2607,2
2140,0.0714,-0.2354,0.9116,-0.8453,8.5945,0.0976,2
2160,-0.2693,-0.2094,0.9744,3.3318,7.9545,0.4925,2
2180,-0.5496,-0.0808,0.9853,1.8187,8.2934,-1.4445,2
2200,-0.7650,-0.0562,0.9912,7.4167,4.3891,-1.3366,2
2220,-0.8028,0.0056,1.0104,9.4314,3.2162,-2.8077,2
2240,-0.7576,0.0261,1.0998,12.8911,-0.6290,-2.5550,2
2260,-0.4059,0.2022,1.0624,9.3083,-0.6578,-5.0887,2
2280,-0.1627,0.3016,0.9816,9.5386,-4.1373,-4.7976,2
2300,0.2860,0.2089,1.1187,11.4876,-6.2778,-6.1463,2
2320,0.5576,0.2143,1.0206,8.7745,-7.6171,-5.5321,2
2340,0.7908,0.0888,0.9579,8.6306,-6.0849,-5.3737,2
2360,0.6908,-0.0839,0.8784,9.2993,-9.3805,-6.6038,2
2380,0.7374,-0.1199,0.9400,4.4032,-6.2723,-6.8904,2
2400,0.4443,-0.1789,0.9656,3.7466,-6.3771,-6.5892,2
2420,0.1501,-0.3238,0.9870,1.7496,-4.9846,-5.2635,2
2440,-0.0974,-0.3121,1.1021,-1.7337,-0.6001,-6.3178,2
2460,-0.4361,-0.1589,1.0424,-5.9292,-0.4017,-5.3989,2
2480,-0.6781,-0.0605,1.0735,-8.2811,2.8581,-4.1597,2
2500,-0.8388,0.0092,1.0135,-7.9467,5.1076,-3.6881,2
2520,-0.6620,0.0705,1.0119,-11.0137,5.4018,-4.5767,2
2540,-0.4941,0.2057,0.9779,-11.7733,9.0048,-3.1376,2
2560,-0.1427,0.1189,0.7790,-11.4513,6.2140,-2.6005,2
2580,0.1257,0.3373,0.9362,-11.6814,8.2215,-1.3357,2
2600,0.4336,0.2627,0.8855,-10.8955,3.9747,-0.6390,2
2620,0.7165,0.2229,0.8993,-11.2903,4.8852,0.3085,2
2640,0.8128,-0.0461,0.9824,-6.7556,1.5359,1.1821,2
2660,0.7346,-0.1641,1.0856,-5.9398,1.9139,0.8957,2
2680,0.6134,-0.2589,1.0814,-2.8551,-5.7098,2.3408,2
2700,0.2022,-0.2732,1.0935,-0.0841,-5.4504,3.4223,2
2720,-0.0911,-0.2380,1.0126,2.5270,-6.5060,4.2702,2
2740,-0.4932,-0.2320,1.0094,0.8933,-9.8104,4.1014,2
2760,-0.6337,-0.1704,0.9307,4.4775,-8.5237,4.8469,2
2780,-0.6205,0.0374,0.9766,9.8055,-8.6181,4.6110,2
2800,-0.8494,0.1596,0.8983,7.7060,-6.6813,5.7597,2
2820,-0.5617,0.1804,0.8970,12.1101,-5.0960,6.0838,2
2840,-0.2396,0.1821,0.9396,12.7341,-3.1160,6.0513,2
2860,0.0947,0.3710,1.0307,12.7503,0.9887,5.5403,2
2880,0.3947,0.2084,1.0615,11.8094,3.2128,6.0782,2
2900,0.6519,0.0625,1.0625,12.9174,5.2858,6.1291,2
2920,0.9375,-0.0421,1.0336,11.9865,6.6434,5.6635,2
2940,0.6789,-0.0310,1.0776,5.6037,7.4854,5.1990,2
2960,0.6369,-0.2246,1.0661,6.5747,7.5636,4.8090,2
2980,0.3297,-0.2670,0.9533,2.1853,9.5282,5.1676,2
3000,0.0748,-0.2163,0.8906,-0.0664,7.6367,2.7552,2
3020,-0.2897,-0.0685,0.9626,-0.3553,5.0049,3.8223,2
3040,-0.6738,-0.1020,0.9566,-4.6455,4.1468,1.8500,2
3060,-0.7898,-0.0536,0.9216,-6.9918,-1.9119,2.3121,2
3080,-0.7821,0.0116,0.9737,-9.6215,-1.4542,1.0805,2
3100,-0.7037,0.0869,1.0753,-11.8478,-4.4248,-0.1020,2
3120,-0.3604,0.2652,1.0249,-14.6809,-6.9712,0.4003,2
3140,0.1115,0.3567,1.0701,-14.8455,-10.3040,-2.3539,2
3160,0.2787,0.3064,1.0902,-11.4236,-9.0577,-3.4206,2
3180,0.6035,0.2089,1.0312,-12.6684,-6.9552,-3.0545,2
3200,0.6752,0.0240,0.9981,-10.0834,-4.8476,-3.6786,2
3220,0.7548,-0.0307,0.9375,-9.1012,-6.2331,-4.1317,2
3240,0.7431,-0.0900,0.9807,-6.6479,-1.0291,-5.9453,2
3260,0.3476,-0.3153,0.9128,-4.1538,-0.0216,-5.4704,2
3280,0.0048,-0.2632,0.9484,-3.5951,0.6170,-6.6245,2
3300,-0.1325,-0.2160,1.0340,-0.5206,5.5054,-5.2050,2
3320,-0.7075,-0.2201,1.0693,5.4485,5.1533,-6.6197,2
3340,-0.7916,-0.0813,1.1235,5.5113,8.5025,-7.0191,2
3360,-0.8662,0.0675,1.1146,10.1099,6.3699,-6.6740,2
3380,-0.6352,0.1183,1.0122,11.0622,6.9910,-4.6634,2
3400,-0.3466,0.2328,1.0694,11.5163,7.9290,-4.6087,2
3420,-0.1303,0.2194,0.9019,11.8137,6.5010,-4.6255,2
3440,0.2393,0.1978,0.8556,11.1130,3.1317,-5.1300,2
3460,0.5594,0.3120,0.9250,10.9438,0.8410,-4.1929,2
3480,0.6576,0.1099,0.9489,10.4674,-0.7520,-3.2835,2
3500,0.6582,0.0408,0.9368,6.7319,-4.9573,-2.5587,2
3520,0.7061,-0.2098,1.0272,4.1265,-5.4534,-1.9392,2
3540,0.5808,-0.0709,0.9952,3.9809,-7.4135,-0.9705,2
3560,0.2162,-0.2550,1.0581,-0.2823,-6.6911,-0.1147,2
3580,-0.0765,-0.2556,1.0513,-2.8546,-7.4998,-0.4701,2
3600,-0.3223,-0.2779,1.0657,-1.2012,-6.5197,1.3398,2
3620,-0.7785,-0.2041,1.0453,-3.6987,-6.3927,1.1047,2
3640,-0.9951,-0.0778,0.9651,-5.6560,-3.1341,3.0416,2
3660,-0.7758,0.0510,0.9906,-9.6038,-4.1700,2.9917,2
3680,-0.6163,0.1400,0.9426,-11.3292,0.7107,5.2529,2
3700,-0.3029,0.3476,0.9043,-11.7095,2.8397,4.8994,2
3720,0.1358,0.2659,0.9340,-13.7730,8.2565,4.9286,2
3740,0.4846,0.0997,0.9973,-11.7270,7.4016,3.5605,2
3760,0.6888,0.0550,1.0632,-12.1738,6.7465,5.8425,2
3780,0.7095,-0.0004,1.0282,-11.9344,9.2024,5.2421,2
3800,0.7466,-0.0260,1.0529,-8.3737,7.7097,7.2817,2
3820,0.4896,-0.1739,0.9851,-5.3949,6.2371,5.7010,2
3840,0.2579,-0.3133,1.0171,-0.5595,3.0546,5.7729,2
3860,-0.0100,-0.1620,0.9094,0.1069,2.4750,5.9668,2
3880,-0.5835,-0.1782,0.9949,3.1709,-1.5388,5.3101,2
3900,-0.5056,-0.0828,0.9456,6.0181,-3.5033,5.1329,2
3920,-0.7921,-0.0098,0.9918,9.4384,-6.5667,4.9532,2
3940,-0.7159,0.0993,0.9394,14.1444,-8.0921,3.3052,2
3960,-0.5977,0.2885,0.9756,10.4326,-6.3462,3.4826,2
3980,-0.3674,0.2534,1.0615,13.3597,-6.4501,3.0069,2
4000,0.0233,0.2537,1.0956,12.0883,-7.6092,2.9350,2
4019,0.4619,0.1207,1.0778,10.6091,-6.8747,1.4817,2
4040,0.6700,0.1458,0.9775,9.3139,-3.7074,-1.8708,2
4059,0.8699,0.0930,1.0662,9.1641,-5.0888,-0.1779,2
4080,0.8878,0.0142,0.9422,7.7879,-0.8404,-2.0123,2
4100,0.7236,-0.2177,0.8981,3.6814,0.4436,-2.0508,2
4120,0.4783,-0.2221,0.8598,4.3282,6.4778,-3.4583,2
4140,0.0119,-0.2065,0.9965,-0.4548,4.6602,-3.1584,2
4160,-0.2306,-0.2228,0.9427,-0.6576,8.1083,-4.9369,2
4180,-0.5792,-0.2508,1.0370,-5.1853,7.4644,-4.9319,2
4200,-0.7576,-0.0169,1.0746,-7.3037,8.6651,-5.0831,2
4220,-0.8278,0.0221,1.0703,-8.1929,6.3410,-6.1202,2
4240,-0.5180,0.1887,1.0468,-9.6022,5.3185,-5.7979,2
4260,-0.4177,0.2788,1.0675,-11.6229,4.3353,-6.1215,2
4280,-0.0905,0.2582,1.0093,-11.9616,-0.0012,-6.9964,2
4300,0.1673,0.1392,0.9330,-12.1311,-1.6214,-6.5886,2
4320,0.3592,0.2757,0.9770,-10.4441,-1.7400,-7.0189,2
4340,0.8948,0.0266,0.9296,-11.9631,-5.9163,-5.6850,2
4360,0.7860,0.0306,0.9359,-9.0504,-7.9610,-4.9979,2
4380,0.6487,-0.0570,1.0144,-8.7784,-6.5835,-3.5529,2
4400,0.4904,-0.1558,1.0515,-4.1490,-7.6396,-5.7168,2
4420,0.1610,-0.2039,1.0720,0.5754,-7.9643,-4.4745,2
4440,-0.0473,-0.2421,1.0844,1.3968,-6.5352,-2.0623,2
4460,-0.5522,-0.2571,1.0591,0.8621,-4.3236,-3.3899,2
4480,-0.6745,-0.1453,1.0888,8.6675,-0.2644,-1.9964,2
4500,-0.7887,-0.0976,1.0072,7.1086,2.0847,1.0570,2
4520,-0.6839,-0.0252,0.9533,10.3279,3.6919,-0.7455,2
4540,-0.4903,0.1054,0.8955,12.3238,4.3665,1.1129,2
4560,-0.3085,0.3454,0.8890,11.5475,7.4551,1.0613,2
4580,0.1614,0.2726,0.9706,13.2131,7.6614,2.2013,2
4600,0.6582,0.2550,0.9291,11.5727,7.5347,2.9750,2
4620,0.6027,0.0893,1.0830,11.2554,4.2705,4.7677,2
4640,0.8856,-0.0079,1.0805,7.3726,5.3358,5.6382,2
4660,0.7221,-0.2080,1.0740,6.6193,5.4235,5.0188,2
4680,0.5139,-0.1081,1.0818,3.2175,3.0821,5.6431,2
4700,0.2474,-0.2169,1.0101,1.0330,-0.7486,5.7179,2
4720,0.0015,-0.2242,1.0462,-0.7385,-1.8634,6.4750,2
4740,-0.4276,-0.2035,0.9291,-2.5368,-5.2629,5.9317,2
4760,-0.5869,-0.2086,0.9161,-4.1367,-6.4293,6.3612,2
4780,-0.7736,-0.0186,0.8593,-8.4946,-5.8212,5.8270,2
4800,-0.7863,0.0395,0.9290,-10.6412,-7.4001,6.3568,2
4820,-0.5213,0.0970,0.9528,-11.3742,-6.9098,5.3011,2
4840,-0.2212,0.2991,0.9715,-12.5728,-6.8660,7.6751,2
4860,0.0158,0.3469,1.0015,-13.5775,-5.2371,4.4293,2
4880,0.3640,0.1650,1.0439,-9.7694,-0.7151,5.3133,2
4900,0.6891,0.1470,1.0569,-12.2171,0.6869,2.9837,2
4920,0.7063,0.1188,1.1286,-8.6169,3.9903,3.0265,2
4940,0.6679,-0.0205,1.0343,-7.2402,4.5326,3.2375,2
4960,0.5376,-0.2025,0.9265,-4.9734,5.2252,1.1220,2
4980,0.2842,-0.2338,0.8732,-2.4782,9.1206,0.9504,2
5000,0.1233,-0.1546,0.9511,0.1195,8.0270,0.6110,2
5020,-0.3720,-0.3376,0.9524,0.8080,6.4693,-0.8418,2
5040,-0.6240,-0.2434,0.9735,6.6552,5.1767,-0.6514,2
5060,-0.8997,0.0758,0.9951,7.5879,2.5530,-2.5174,2
5080,-0.7676,0.0395,1.0300,7.7317,4.0192,-3.1985,2
5100,-0.5240,0.1074,1.0594,11.9970,-1.6963,-4.8934,2
5120,-0.2976,0.1353,1.0039,14.6126,-3.8562,-4.4065,2
5140,-0.0447,0.0596,1.0415,12.7115,-3.9880,-4.3831,2
5160,0.2635,0.2687,0.9835,9.5307,-7.7850,-6.7389,2
5180,0.6639,0.0674,0.9774,10.5876,-7.5797,-4.8448,2
5200,0.7258,0.1133,0.9340,9.4650,-5.2243,-7.3520,2
5220,0.8968,0.0119,0.9008,10.5427,-9.9787,-6.7719,2
5240,0.5788,-0.1022,0.8885,6.4739,-7.0317,-6.7830,2
5260,0.4598,-0.2198,0.9238,7.8301,-5.7993,-8.1074,2
5280,0.0329,-0.3192,1.0451,1.2681,-2.6525,-6.4530,2
5300,-0.2696,-0.2520,1.0497,-0.5407,-0.3496,-5.4735,2
5320,-0.5077,-0.1183,1.0885,-3.8433,3.1226,-6.0202,2
5340,-0.8123,-0.1642,1.0839,-9.7110,4.5401,-5.0947,2
5360,-0.7077,-0.0279,1.0436,-6.9521,7.5599,-4.9835,2
5380,-0.6865,0.1345,1.0255,-10.7490,8.7975,-5.3060,2
5400,-0.5039,0.2228,0.9842,-9.2483,9.3748,-3.3117,2
5420,-0.0459,0.1901,0.9694,-9.0499,9.3255,-2.2339,2
5440,0.1724,0.1346,0.9324,-13.6897,6.1066,-2.4662,2
5460,0.4731,0.1831,0.9442,-12.2514,6.8685,-0.8489,2
5480,0.6608,0.1167,1.0463,-9.5957,3.1516,-1.0611,2
5500,0.7824,0.0150,0.9970,-11.1499,0.2308,2.1648,2
5520,0.8386,-0.1589,1.0802,-8.3156,0.4834,2.0203,2
5540,0.5859,-0.2947,1.1042,-4.0771,-2.5198,3.3472,2
5560,0.2042,-0.2709,1.1076,-1.6002,-6.5966,2.6250,2
5580,-0.2681,-0.2684,1.0955,1.4138,-7.6703,4.6923,2
5600,-0.5368,-0.1881,1.0028,4.9548,-9.7510,3.9852,2
5620,-0.8321,-0.1322,1.0139,5.2998,-8.5559,5.8986,2
5640,-0.7129,-0.0207,0.9593,6.4914,-5.6273,7.3656,2
5660,-0.7021,-0.0450,0.8977,10.9055,-6.4397,7.0117,2
5680,-0.5006,0.1297,0.9348,9.7272,-4.2481,5.7933,2
5700,-0.1532,0.3637,0.9110,8.7751,-2.0394,5.1569,2
5720,0.1040,0.2860,1.0728,12.2986,0.4710,4.8127,2
5740,0.4308,0.2072,1.0792,10.3899,2.5626,5.1257,2
5760,0.4922,0.0577,1.0144,11.0544,4.5547,5.6805,2
5780,0.7149,-0.1768,1.1366,7.4009,6.2865,4.6440,2
5800,0.8386,-0.0650,1.0179,6.4259,9.7625,5.3453,2
5820,0.5686,-0.2245,0.9337,4.5097,8.3778,5.7852,2
5840,0.1146,-0.2952,0.9418,2.2430,7.3006,4.2248,2
5860,-0.0176,-0.2973,0.9690,0.3166,5.8753,4.9443,2
5880,-0.2609,-0.1506,0.7993,-0.4580,5.4087,4.5464,2
5900,-0.5482,-0.0401,0.9690,-3.2900,4.6249,2.3412,2
5920,-0.9116,-0.0646,0.9843,-7.5293,-1.6969,0.0520,2
5940,-0.8342,0.1114,1.0767,-8.0154,-1.3462,0.4575,2
5960,-0.7558,0.1238,1.0437,-11.6532,-4.7176,0.0316,2
5980,-0.2724,0.1994,1.0012,-12.4836,-6.4491,-0.1815,2
6000,-0.0454,0.2728,1.0877,-11.9298,-6.4918,-2.5064,2
6020,0.2946,0.2164,1.0250,-10.8982,-8.8557,-2.5803,2
6040,0.6084,0.1667,0.9906,-11.4005,-7.5237,-3.3353,2
6060,0.7745,0.1688,0.9249,-9.5846,-8.4480,-3.8741,2
6080,0.6966,-0.0628,0.9165,-7.1997,-5.5268,-5.2503,2
6100,0.7621,-0.1229,0.8976,-5.8492,-0.7355,-5.4814,2
6120,0.3303,-0.2542,0.9122,-3.9355,-1.8371,-6.6199,2
6140,-0.0161,-0.2017,0.9539,-0.7084,3.6593,-5.0124,2
6160,-0.3171,-0.2635,0.9794,3.3570,4.1255,-6.5803,2
6180,-0.6483,-0.2135,1.0672,2.6611,7.3899,-6.8118,2
6200,-0.7728,-0.1597,1.0770,6.5281,7.3781,-5.2100,2
6220,-0.7795,-0.0208,1.0475,9.9535,9.5393,-6.0534,2
6240,-0.6204,0.1676,1.1070,7.3963,8.5737,-5.2744,2
6260,-0.5358,0.1460,0.9745,10.3575,6.2562,-5.5444,2
6280,-0.0310,0.3073,0.9306,10.6248,6.8317,-4.7984,2
6300,0.2538,0.2585,0.9299,12.6916,2.7739,-4.5857,2
6320,0.4268,0.1309,0.8930,10.5583,-0.3089,-4.6290,2
6340,0.6227,0.1235,0.9311,7.1966,-2.6487,-3.2613,2
6360,0.7550,-0.0597,0.9666,8.7643,-5.6654,-2.3574,2
6380,0.6370,-0.1168,1.0131,5.2652,-7.0944,-2.2445,2
6400,0.6003,-0.2813,1.1225,3.2927,-7.1962,-2.0686,2
6420,0.0882,-0.2679,1.0358,0.7950,-8.4189,1.1189,2
6440,-0.2922,-0.2259,1.0857,-3.2165,-7.0523,0.1634,2
6460,-0.7093,-0.1427,1.0051,-5.7413,-6.2564,1.0398,2
6480,-0.6504,-0.0247,0.9822,-5.1607,-6.5278,3.9165,2
6500,-0.8554,0.0657,0.9974,-7.9795,-4.4366,2.7844,2
6520,-0.8961,0.1165,0.9449,-9.9183,-4.8691,2.6180,2
6540,-0.5698,0.2036,0.9317,-11.5629,1.9144,3.4714,2
6560,-0.1501,0.2628,0.9498,-12.1966,5.6938,5.2742,2
6580,0.0724,0.2516,1.0002,-12.8877,6.8200,5.6877,2
6600,0.2828,0.2133,0.9987,-10.5532,8.1435,5.9470,2
6620,0.8343,0.1042,1.0801,-9.0410,7.7319,6.7221,2
6640,0.7508,-0.0120,1.0252,-8.3614,8.3392,7.2446,2
6660,0.8071,-0.1066,1.0285,-6.0524,8.6344,6.9980,2
6680,0.6344,-0.1885,1.0308,-5.5965,5.9005,6.3124,2
6700,0.2637,-0.2365,1.0022,-3.1199,5.2023,6.3071,2
6720,-0.1142,-0.2859,0.9100,2.8462,2.4597,4.7088,2
6740,-0.3676,-0.1436,0.9356,5.9049,-0.3927,4.5320,2
6760,-0.6462,-0.1129,0.8960,6.6987,-5.0394,6.0170,2
6780,-0.8639,-0.0931,0.9304,8.6285,-4.9413,4.0987,2
6800,-0.8013,0.0016,0.9616,11.4282,-6.7597,4.7670,2
6820,-0.4667,0.1267,1.0080,14.4870,-6.0028,2.0573,2
6840,-0.2635,0.2232,1.0886,10.5955,-8.9974,2.1111,2
6860,0.0045,0.2917,1.0306,10.9979,-9.6392,2.6683,2
6880,0.4871,0.1894,1.0635,12.3482,-4.5209,1.3678,2
6900,0.5914,0.0375,1.0044,10.8092,-5.2831,0.3570,2
6920,0.7416,-0.0227,0.9599,11.7459,-1.2134,0.7421,2
6940,0.8181,-0.0872,1.0157,7.3020,0.4158,-1.5088,2
6960,0.3807,-0.0503,0.9500,5.6371,2.4934,-2.1503,2
6980,0.2928,-0.1777,0.8678,2.9154,5.4167,-3.2069,2
7000,0.0297,-0.3034,0.8966,0.3787,7.2864,-5.2617,2
7020,-0.2989,-0.2519,0.9633,-4.7609,6.5708,-3.6374,2
7040,-0.6138,-0.1775,1.0113,-4.3266,8.5280,-5.0422,2
7060,-0.6874,0.0024,1.0724,-7.2675,8.4425,-5.2160,2
7080,-0.7010,0.1025,1.0372,-10.9837,5.7468,-5.0766,2
7100,-0.7733,0.1663,1.0898,-8.8318,5.1197,-7.2204,2
7120,-0.4622,0.1347,1.0271,-11.9156,1.3586,-5.1508,2
7140,-0.1563,0.3257,1.0539,-10.5568,-0.4808,-6.1249,2
7160,0.1923,0.2814,0.9594,-12.4424,-3.5552,-8.3411,2
7180,0.5001,0.2355,0.9140,-11.2840,-3.5423,-4.7643,2
7200,0.8668,0.0119,0.8425,-5.9328,-3.4413,-5.7998,2
7220,0.6921,0.0316,0.9313,-8.1165,-6.3462,-5.3214,2
7240,0.5806,-0.1494,0.9979,-4.9646,-7.6629,-4.3833,2
7260,0.3997,-0.1912,0.8814,-4.0673,-6.8681,-4.8943,2
7280,0.0630,-0.3048,1.0963,0.1241,-5.8697,-5.3353,2
7300,-0.2600,-0.2462,1.0669,0.8916,-5.7058,-2.5781,2
7320,-0.7007,-0.0612,1.0945,4.3498,-2.1351,-3.6663,2
7340,-0.7970,-0.0961,1.1029,6.6706,-0.3128,-2.1798,2
7360,-0.7595,0.1224,1.0458,8.6173,2.4083,-0.4198,2
7380,-0.6605,0.1868,1.0061,10.1255,4.6683,-0.3467,2
7400,-0.5441,0.1769,0.9268,8.7541,6.8641,-1.4117,2
7420,0.0673,0.3319,0.9098,11.9618,7.5806,1.1592,2
7440,0.2144,0.2232,0.9321,12.1957,6.3475,2.4622,2
7460,0.5230,0.1932,0.9633,13.1111,7.4608,3.3702,2
7480,0.8276,0.0971,1.0255,9.9777,8.5899,3.6846,2
7500,0.9027,-0.0066,1.0222,9.5723,5.2913,5.0219,2
7520,0.5055,-0.1019,1.0598,4.7287,3.0127,4.6226,2
7540,0.5061,-0.2724,1.0876,6.2508,1.6878,6.1964,2
7560,0.2865,-0.1533,1.1226,0.7053,-1.9645,6.5473,2
7580,-0.0932,-0.1861,1.0811,-1.1111,-2.9403,5.4045,2
7600,-0.2994,-0.2157,0.9491,-4.2630,-6.2503,5.7660,2
7620,-0.7429,-0.2030,0.8982,-2.9902,-6.1033,7.1406,2
7640,-0.7042,0.1023,0.8494,-10.1824,-8.8033,5.9632,2
7660,-0.7679,0.0597,0.9449,-9.8685,-8.8218,4.4274,2
7680,-0.6271,0.1398,0.9625,-12.9648,-7.9109,4.9847,2
7700,-0.2573,0.1596,0.9835,-13.9462,-6.1851,4.8156,2
7720,0.1728,0.2641,1.0541,-13.2523,-3.6589,5.5848,2
7740,0.4401,0.3053,1.0967,-10.0618,-1.6828,5.0088,2
7760,0.6117,0.0993,1.0887,-9.9683,1.2117,4.7069,2
7780,0.6797,-0.0323,1.0566,-10.1603,7.0450,3.5310,2
7800,0.7546,-0.1072,0.9858,-7.0052,5.2338,1.9906,2
7820,0.5613,-0.0783,1.0164,-4.3625,5.1180,1.9834,2
7840,0.4188,-0.1355,0.9588,0.0273,7.7871,1.2248,2
7860,-0.1047,-0.2208,0.9734,-0.5661,6.9585,-0.0426,2
7880,-0.4035,-0.1688,0.9184,5.7338,5.9623,0.0415,2
7900,-0.7084,-0.2560,0.9824,5.0405,4.9897,-3.1306,2
7920,-0.7865,0.0175,1.0413,7.7398,5.1128,-2.6004,2
7940,-0.8892,-0.0313,1.0491,9.2248,3.3495,-2.7210,2
7960,-0.5680,0.1350,1.0232,11.5172,0.5297,-5.9280,2
7980,-0.4074,0.1729,1.0793,10.4256,-2.5657,-4.8062,2
8000,-0.0127,0.1942,1.0215,10.2716,-4.2462,-4.7208,2
8020,0.2790,0.3145,0.9919,14.1593,-7.2130,-7.2489,2
8039,0.6486,0.1689,0.9620,9.8304,-7.6183,-6.3887,2
8060,0.7507,0.1136,0.9366,10.4578,-8.2768,-6.5014,2
8080,0.6936,-0.0687,0.7875,6.7047,-7.7664,-5.9167,2
8100,0.6257,-0.1188,0.8496,5.3569,-8.6320,-7.3635,2
8119,0.3704,-0.1286,0.9882,3.0134,-4.9663,-6.8857,2
8140,0.0067,-0.2122,0.9630,1.3258,-3.2705,-5.4625,2
8160,-0.2176,-0.3302,1.0344,-3.6174,-2.5772,-6.6507,2
8180,-0.3879,-0.1253,1.1552,-3.4392,1.1480,-5.7306,2
8200,-0.7138,-0.0462,1.0513,-9.4694,8.2319,-5.0442,2
8220,-0.8198,0.0373,1.0369,-8.8050,7.6763,-4.4513,2
8240,-0.7685,0.1183,0.9854,-8.2374,8.8060,-3.6104,2
8260,-0.5310,0.1242,0.9608,-10.9854,7.5238,-3.3611,2
8280,-0.1477,0.2366,0.8336,-13.7384,7.0438,-1.2397,2
8300,0.1821,0.2398,0.9294,-9.7756,8.4010,-1.4421,2
8320,0.5096,0.1325,0.9275,-11.8518,5.9924,-0.2260,2
8340,0.7912,0.1689,1.0484,-9.7255,4.5885,0.0001,2
8360,0.8932,0.0529,1.0593,-8.0641,0.1008,0.0045,2
8380,0.6978,-0.0175,1.0456,-4.8523,-0.5357,1.7125,2
8400,0.5755,-0.3803,1.0297,-5.1732,-4.8377,2.9940,2
8420,0.1731,-0.2105,1.0980,-2.6495,-7.2590,3.7802,2
8440,-0.2494,-0.3330,1.0851,3.7362,-5.3266,4.2908,2
8460,-0.4599,-0.0973,0.9779,5.8419,-7.5861,5.4781,2
8480,-0.7090,-0.0192,0.9687,4.0556,-6.1512,4.5126,2
8500,-0.6998,-0.0058,0.9758,10.3009,-6.6119,6.1093,2
8520,-0.6901,-0.0267,0.9251,8.3462,-5.4869,5.1208,2
8540,-0.6047,0.2876,0.9802,11.2839,-3.4995,6.0646,2
8560,-0.1534,0.1892,1.0141,11.5004,-1.9040,6.3992,2
8580,0.1026,0.2568,0.9979,12.6964,2.5117,5.8143,2
8600,0.4598,0.2237,1.0409,12.1556,4.0727,7.1532,2
8620,0.6526,0.0553,1.0664,8.7805,6.1170,5.1448,2
8640,0.9851,0.0980,1.0745,10.1355,4.9973,7.7749,2
8660,0.6966,-0.0961,0.9716,7.5231,6.5010,5.4194,2
8680,0.5041,-0.2439,0.9708,4.7788,6.4218,4.2282,2
8700,0.3003,-0.0617,0.9784,0.4096,6.9015,4.2577,2
8720,-0.1282,-0.1803,0.9372,0.6991,5.6567,4.6244,2
8740,-0.4420,-0.2648,1.0075,-6.2679,3.2721,2.3320,2
8760,-0.4748,-0.0130,0.9975,-6.3101,4.8034,2.3487,2
8780,-0.7155,-0.0186,0.9728,-8.3386,-0.8040,1.7255,2
8800,-0.7315,0.0721,1.0803,-14.4550,-2.3331,0.9761,2
8820,-0.4914,0.1601,1.0670,-9.4355,-3.2712,-0.6824,2
8840,-0.2731,0.3306,0.9938,-12.8915,-4.9412,-0.4041,2
8860,0.0920,0.2108,1.0385,-12.9400,-5.8522,-2.5948,2
8880,0.3935,0.1621,1.0791,-12.4850,-8.1114,-4.2164,2
8900,0.5181,0.1416,0.9495,-7.3239,-10.0009,-4.2375,2
8920,0.7872,0.0216,0.9147,-10.7788,-7.5407,-4.4919,2
8940,0.9310,-0.0547,0.9756,-6.5437,-3.2428,-7.0935,2
8960,0.5921,-0.0693,0.8976,-2.2894,-0.5957,-5.7355,2
8980,0.3004,-0.2820,0.9129,-4.5899,0.5648,-6.9385,2
9000,0.0483,-0.1998,0.9088,2.4797,3.0885,-5.4870,2
9020,-0.4013,-0.1773,1.0654,2.4599,7.0638,-6.2588,2
9040,-0.5251,-0.1342,1.0824,2.4352,6.8578,-6.9799,2
9060,-0.8426,0.0519,1.0703,5.7496,7.1295,-7.4190,2
9080,-0.6711,0.0004,1.0948,11.4159,7.3973,-5.8289,2
9100,-0.7296,0.2976,1.0824,10.3839,6.7549,-6.1128,2
9120,-0.4126,0.3353,0.9530,11.8387,6.6228,-5.7780,2
9140,-0.0589,0.2321,0.9933,12.9685,5.4850,-7.6749,2
9160,0.3185,0.1172,0.9539,14.1466,1.7398,-4.9295,2
9180,0.5352,0.2434,0.9244,13.7784,0.9487,-3.9165,2
9200,0.7663,0.1265,0.8689,9.8448,-2.0736,-2.8490,2
9220,0.7787,-0.0966,0.9761,6.2032,-6.5544,-2.1069,2
9240,0.7218,-0.0987,1.0730,4.7170,-7.8169,-1.9571,2
9260,0.4009,-0.2565,1.0561,2.3693,-9.5846,-1.4335,2
9280,0.0094,-0.2233,1.0527,2.5321,-6.0444,0.3023,2
9300,-0.3713,-0.1319,1.1364,-1.8471,-6.2198,0.1610,2
9320,-0.6969,-0.2236,1.1137,-6.8032,-6.9120,1.4626,2
9340,-0.7849,-0.1167,1.0044,-7.6445,-7.0720,2.4154,2
9360,-0.7126,0.0707,0.9256,-10.7496,-3.6560,4.2667,2
9380,-0.6494,0.1607,0.9634,-9.6557,-0.8080,4.2591,2
9400,-0.5139,0.1036,0.9496,-9.4323,0.1572,5.0386,2
9420,-0.0154,0.2356,0.9060,-11.7499,3.1493,4.4634,2
9440,0.2336,0.1298,0.9185,-11.8745,5.7357,5.7212,2
9460,0.6600,0.1916,1.0453,-12.8514,8.0947,5.4201,2
9480,0.7296,0.0952,1.1010,-12.2279,5.1693,5.9638,2
9500,0.8375,0.0097,1.1283,-7.7855,7.2249,4.4609,2
9520,0.7049,-0.0364,1.0575,-6.3846,7.6564,5.5857,2
9540,0.5598,-0.0801,1.0372,-5.8714,5.6476,4.5840,2
9560,0.2259,-0.2035,1.0680,-1.8144,4.2558,5.5294,2
9580,-0.1784,-0.3334,0.9498,0.6408,1.8087,5.4664,2
9600,-0.4636,-0.2155,0.9144,3.8368,-0.9540,6.2173,2
9620,-0.7107,-0.1380,0.9135,4.9650,-3.7926,6.7789,2
9640,-0.8714,-0.0329,0.9235,7.8191,-5.8001,4.8334,2
9660,-0.8806,0.1547,1.0020,7.9364,-9.6595,3.2042,2
9680,-0.5671,0.3401,1.0436,8.2652,-8.6457,3.2498,2
9700,-0.2269,0.1441,1.0546,10.7040,-9.2890,2.7494,2
9720,0.1622,0.2919,1.1021,11.1805,-6.5044,1.9941,2
9740,0.4394,0.1635,1.0531,11.6417,-3.1390,1.1627,2
9760,0.6266,0.0753,1.0240,13.9993,-4.6805,0.8059,2
9780,0.7636,0.0468,1.0322,8.0863,-2.7101,0.5649,2
9800,0.8396,-0.0236,0.9886,7.7887,2.9237,-1.5565,2
9820,0.6294,-0.2571,0.8944,2.8445,4.4271,-4.4354,2
9840,0.2623,-0.4147,0.8875,1.4631,6.6834,-2.8362,2
9860,-0.1169,-0.1713,0.9400,-0.3168,5.2294,-4.6508,2
9880,-0.4514,-0.2073,0.9803,-0.5137,8.1583,-6.6630,2
9900,-0.6262,-0.2339,0.9837,-6.7474,7.2000,-6.1571,2
9920,-0.7696,-0.1353,1.0746,-4.0699,5.9487,-5.7567,2
9940,-0.9767,0.0404,1.1049,-8.3288,6.4752,-5.1937,2
9960,-0.4127,0.2626,1.0519,-13.1797,4.1332,-6.9360,2
9980,-0.3045,0.1416,1.0404,-10.3702,2.3034,-7.1014,2
10000,0.0940,0.1197,0.9869,-12.0667,0.0191,-6.2556,2
10020,0.3895,0.2149,0.9420,-12.3631,-3.1581,-5.7143,2
10040,0.5647,0.2072,0.9280,-11.6919,-3.8785,-6.7604,2
10060,0.8259,0.0733,0.8970,-8.6360,-5.7264,-4.9791,2
10080,0.8631,-0.0135,0.8946,-3.7313,-9.2283,-4.7697,2
10100,0.6817,-0.2162,0.9727,-5.5739,-6.4294,-5.6276,2
10120,0.3644,-0.3598,1.0922,-4.6970,-7.3039,-4.5781,2
10140,0.0424,-0.1877,1.1275,0.0255,-5.8865,-3.5956,2
10160,-0.2131,-0.2528,1.1223,4.0254,-3.7225,-3.6816,2
10180,-0.5966,-0.1490,1.0178,7.3176,-2.9129,-2.1662,2
10200,-0.8070,-0.1591,1.0187,7.4041,0.3058,-1.4622,2
10220,-0.7660,0.0085,1.0193,11.3739,2.7865,-0.1146,2
10240,-0.6519,0.0324,0.9145,11.2435,4.1883,0.4323,2
10260,-0.2945,0.2491,0.9773,11.6750,5.0982,0.8754,2
10280,-0.1646,0.3378,0.9525,12.8091,8.8450,0.1308,2
10300,0.2943,0.1444,0.9397,11.3535,8.7586,2.7243,2
10320,0.6552,0.1364,1.0065,11.4169,5.8558,2.5575,2
10340,0.7318,0.1595,1.0418,8.0570,6.7682,5.6001,2
10360,0.8073,-0.0360,1.0807,9.4360,4.8553,5.0120,2
10380,0.6747,-0.0696,1.0861,6.8796,2.4497,4.4969,2
10400,0.5459,-0.1992,1.0838,3.2180,2.0811,5.1221,2
10420,0.1391,-0.1854,1.0894,0.2913,0.9020,6.2158,2
10440,-0.2824,-0.2088,0.9837,-0.8095,-3.8171,6.2779,2
10460,-0.5829,-0.1216,0.9096,-5.8389,-5.2867,7.6458,2
10480,-0.7521,-0.0573,0.9697,-5.1264,-7.5242,5.5251,2
10500,-0.9766,-0.0168,0.9681,-10.2839,-7.0613,5.5611,2
10520,-0.7154,0.1475,0.9139,-9.8592,-8.4073,6.6987,2
10540,-0.4911,0.1885,1.0410,-10.2309,-8.0016,5.7725,2
10560,-0.2050,0.2376,1.1247,-11.3120,-8.2056,5.0121,2
10580,-0.0047,0.2146,0.9818,-13.3413,-5.6348,5.2641,2
10600,0.4703,0.2136,1.0752,-13.6436,-0.8828,5.9189,2
10620,0.7338,0.0884,1.0150,-11.7818,1.4964,4.5877,2
10640,0.8193,0.0663,1.0703,-7.9372,2.5248,3.1516,2
10660,0.6760,-0.0872,1.0117,-4.0589,3.7938,2.6286,2
10680,0.6661,-0.1264,0.9888,-3.4772,8.4694,0.5654,2
10700,0.1363,-0.2287,0.8401,0.0918,9.2722,0.2556,2
10720,-0.1299,-0.2427,0.9231,0.9570,8.6389,-0.3793,2
10740,-0.3532,-0.1741,0.9164,5.4841,5.7515,-1.1543,2
10760,-0.5981,-0.1749,0.9915,6.6504,5.0669,-1.9590,2
10780,-0.8062,-0.0654,1.1163,6.7148,5.4500,-3.0028,2
10800,-0.8478,0.0807,1.0876,11.1810,3.8642,-1.0731,2
10820,-0.5631,0.1219,1.0975,10.5871,0.6590,-5.1481,2
10840,-0.1050,0.2779,1.0046,10.6530,-1.8720,-3.7790,2
10860,-0.0515,0.2852,0.9637,11.8511,-3.6478,-5.6889,2
10880,0.2648,0.2197,0.9738,12.6303,-7.7072,-6.3022,2
10900,0.4855,0.1519,0.9486,8.7907,-7.4498,-5.2000,2
10920,0.7686,0.0621,0.9373,7.3192,-5.5296,-6.6312,2
10940,0.8274,-0.0105,0.9156,8.3258,-7.2655,-7.5128,2
10960,0.5898,-0.1922,0.9225,3.0229,-5.0608,-5.1103,2
10980,0.4189,-0.1358,0.9658,1.5997,-5.5958,-5.7788,2
11000,0.0182,-0.2449,1.0765,0.6479,-3.4785,-6.6315,2
11020,-0.2861,-0.1505,1.0840,0.4173,1.9117,-5.4208,2
11040,-0.6835,-0.2368,1.0640,-3.9042,4.5683,-5.0262,2
11060,-0.6814,-0.0754,1.0966,-6.0375,2.2039,-5.1843,2
11080,-0.7099,0.0625,0.9933,-13.1344,5.9130,-4.3197,2
11100,-0.7179,0.1502,1.0177,-9.6190,4.6999,-4.6488,2
11120,-0.4098,0.2469,0.9742,-10.8680,7.5342,-3.1318,2
11140,-0.1085,0.2887,0.8894,-10.6340,7.9592,-2.1281,2
11160,0.2420,0.1364,0.8953,-12.3155,3.8574,-1.4360,2
11180,0.6571,0.2006,0.9215,-10.9380,4.3932,-0.3230,2
11200,0.8841,0.1361,1.0009,-10.4968,3.8449,-0.9476,2
11220,0.7735,0.0073,1.0548,-6.8639,0.9063,1.0821,2
11240,0.7185,-0.1896,1.0285,-5.6823,-1.6842,0.5935,2
11260,0.4651,-0.1532,1.0765,0.4513,-4.9781,2.5448,2
11280,0.0687,-0.2430,1.0584,-3.0044,-6.6899,3.4859,2
11300,-0.1489,-0.0873,1.0941,0.6366,-8.1770,4.1049,2
11320,-0.4049,-0.1855,0.9439,3.6156,-7.0511,5.3792,2
11340,-0.7598,-0.0446,0.8633,6.9111,-6.7958,4.6718,2
11360,-0.8653,-0.1044,0.9896,7.5954,-6.6722,6.2393,2
11380,-0.5801,0.1058,0.8997,10.6058,-3.8987,5.9381,2
11400,-0.5466,0.0956,0.8928,12.7957,-3.7910,5.8006,2
11420,-0.2072,0.2412,0.9710,11.5097,0.5667,7.6202,2
11440,0.0702,0.2534,0.9946,11.5082,1.7713,6.2116,2
11460,0.5284,0.2280,1.0744,10.2556,2.9662,5.1112,2
11480,0.6555,0.2278,1.0479,8.2225,6.0762,5.9468,2
11500,0.7844,0.0902,1.0932,7.6373,6.6187,5.3004,2
11520,0.7938,-0.1219,0.9686,6.3526,6.0491,7.0180,2
11540,0.4327,-0.1953,1.0068,3.6030,7.5686,5.0846,2
11560,0.3210,-0.1833,1.0129,-0.1706,7.5761,4.2654,2
11580,-0.1218,-0.1477,0.9170,-1.7781,6.4380,2.0406,2
11600,-0.4892,-0.2028,0.8846,-2.0169,2.5793,2.6163,2
11620,-0.6776,-0.0290,0.9416,-4.6107,2.3891,2.0382,2
11640,-0.8856,-0.1069,0.9853,-9.0829,0.2003,1.7168,2
11660,-0.7586,0.0143,1.0466,-11.5537,-4.1793,-0.5021,2
11680,-0.5587,0.2498,1.0627,-11.8665,-7.1588,-0.1205,2
11700,-0.3096,0.2358,1.0655,-10.5112,-7.0746,-1.4433,2
11720,0.1391,0.3730,1.1066,-12.1181,-7.7924,-2.6256,2
11740,0.3527,0.1673,1.0090,-10.4781,-9.2588,-1.9104,2
11760,0.7356,0.1299,0.9960,-11.4073,-7.0765,-2.8260,2
11780,0.7374,-0.0681,0.9815,-8.4823,-7.4762,-4.9384,2
11800,0.6921,-0.1205,0.9127,-7.4799,-5.0676,-5.5378,2
11820,0.5649,-0.1536,0.9089,-2.9119,-1.4285,-6.6978,2
11840,0.3364,-0.1844,0.9250,-4.6409,0.4116,-5.8308,2
11860,-0.1400,-0.3324,0.9781,0.0040,2.3036,-6.1897,2
11880,-0.4736,-0.2381,1.0480,2.4243,2.9365,-6.6929,2
11900,-0.7328,-0.1240,1.0760,2.7938,7.5275,-7.2866,2
11920,-0.6611,-0.0481,1.0298,5.8219,8.0859,-6.6807,2
11940,-0.7826,0.1629,1.0428,9.5778,9.7024,-6.0114,2
11960,-0.7449,0.1853,0.9929,13.1088,6.5893,-3.6041,2
11980,-0.2232,0.1662,0.9963,12.9168,7.3829,-5.2738,2
12000,0.1002,0.2321,0.9383,11.4450,5.7323,-4.8856,2
12020,0.3639,0.2681,0.8434,12.2071,2.7822,-3.3027,2
12040,0.4941,0.2526,0.9246,11.6403,2.1116,-3.5686,2
12060,0.8069,0.0752,0.9234,9.4363,-3.1869,-3.3625,2
12080,0.5990,-0.0175,0.9772,7.1112,-4.2744,-3.7255,2
12100,0.8016,-0.1476,1.0213,3.9033,-6.2925,-0.6760,2
12120,0.4683,-0.1556,1.0854,2.4106,-9.2501,-1.1223,2
12140,0.0314,-0.1724,1.0921,2.9566,-6.5553,-0.4858,2
12160,-0.4381,-0.1345,1.1250,-4.4345,-5.9120,1.0280,2
12180,-0.5703,-0.0609,1.0928,-3.7236,-6.1597,2.0458,2
12200,-0.7928,-0.0777,0.9589,-7.5863,-5.5394,1.8478,2
12220,-0.7828,0.0093,0.9727,-11.5970,-3.1277,3.2236,2
12240,-0.7003,0.1176,0.8618,-9.9453,0.1745,4.2214,2
12260,-0.3456,0.2155,0.9409,-11.2738,2.6682,3.2065,2
12280,-0.1718,0.3397,0.8447,-12.2006,5.5222,4.9576,2
12300,0.2148,0.2365,0.9684,-11.8029,5.1808,6.3957,2
12320,0.6615,0.1664,0.9721,-11.9955,7.1011,6.2939,2
12340,0.6632,0.0391,1.0843,-8.4227,7.2085,5.1013,2
12360,1.0612,0.0351,1.0691,-6.8241,7.6895,7.0327,2
12380,0.7138,-0.1098,1.0658,-8.4243,9.3118,5.6466,2
12400,0.3614,-0.2078,1.0001,-3.7909,6.3017,7.1458,2
12420,0.2151,-0.2553,0.9965,-0.4767,1.3423,6.6453,2
12440,-0.3155,-0.1019,0.9360,1.2082,0.1787,5.4165,2
12460,-0.3280,-0.1247,0.8631,6.4716,0.0812,5.3243,2
12480,-0.6993,-0.1031,1.0007,5.1559,-3.5014,4.7390,2
12500,-0.9146,0.1403,0.8962,8.8375,-7.7457,4.2062,2
12520,-0.6901,0.0494,1.0065,9.7015,-5.7130,4.9802,2
12540,-0.5569,0.1898,1.0354,12.2815,-7.8679,3.3406,2
12560,-0.2184,0.2398,1.1160,12.9391,-7.0822,3.0090,2
12580,0.1376,0.2562,1.0364,13.9768,-10.5566,1.5608,2
12600,0.5615,0.1069,1.0861,10.3235,-6.2743,1.5589,2
12620,0.7169,-0.0146,0.9990,11.8894,-3.3593,1.3583,2
12640,0.9330,-0.0068,1.0941,8.7868,-2.7529,-1.3888,2
12660,0.5633,0.0145,1.0156,5.1202,0.5794,-1.6317,2
12680,0.4708,-0.2873,0.9165,3.9038,2.7572,-2.3266,2
12700,0.3616,-0.2477,0.9287,3.0402,5.9555,-3.7494,2
12720,-0.0926,-0.2031,0.8987,1.2682,8.5781,-4.5325,2
12740,-0.4132,-0.1615,0.9617,-2.5773,7.9807,-5.7563,2
12760,-0.6387,-0.1990,1.0661,-6.8550,7.7837,-4.0322,2
12780,-0.7540,-0.0992,1.0238,-8.8946,7.8931,-5.3022,2
12800,-0.8283,-0.0005,1.0911,-9.9992,8.7528,-5.9213,2
12820,-0.4380,0.0894,1.0069,-12.8052,5.7559,-4.8039,2
12840,-0.3571,0.1937,0.9909,-14.6861,2.9488,-6.1807,2
12860,0.0511,0.1499,1.0591,-12.7994,0.2886,-7.5625,2
12880,0.3702,0.2290,0.9644,-11.3756,-2.1637,-7.2318,2
12900,0.6630,0.1483,0.9340,-10.5763,-6.4311,-7.2001,2
12920,0.6087,0.0973,0.9551,-7.8965,-6.2201,-7.5640,2
12940,0.6927,-0.0488,0.9496,-7.7113,-7.2110,-5.4581,2
12960,0.6261,-0.1939,1.0233,-5.7986,-9.5961,-5.5990,2
12980,0.3127,-0.1535,1.0273,-2.9156,-9.0912,-3.7819,2
13000,-0.0522,-0.2464,1.1239,0.8140,-8.4260,-5.1774,2
13020,-0.3458,-0.2948,1.1058,2.6853,-4.5444,-3.6133,2
13040,-0.4771,0.0289,1.0585,5.6742,-2.4506,-2.4888,2
13060,-0.8414,-0.1291,0.9918,8.0033,-0.7744,-3.5371,2
13080,-0.7502,0.0425,1.0468,9.8432,0.5057,-2.4261,2
13100,-0.7048,0.1011,0.9887,10.6779,5.8571,-0.8588,2
13120,-0.3082,0.2565,0.8438,13.7392,6.4025,1.3545,2
13140,-0.1194,0.3211,0.8747,13.3254,8.4771,1.0833,2
13160,0.4532,0.2380,0.9707,9.3441,10.5312,1.6724,2
13180,0.6652,0.1006,0.9598,12.2751,8.9691,2.3782,2
13200,0.8481,0.1410,0.9919,12.2660,5.0064,3.5797,2
13220,0.8320,-0.0847,1.0756,8.3215,4.9135,5.3588,2
13240,0.6572,-0.1138,1.1258,7.0461,3.9815,4.3052,2
13260,0.4706,-0.2589,1.0181,3.2332,-0.4324,6.2980,2
13280,0.1654,-0.3599,1.0036,-1.5822,-2.3493,6.3720,2
13300,-0.2666,-0.2660,1.0445,-5.5650,-2.5881,5.8104,2
13320,-0.5539,-0.2087,1.0123,-6.3871,-5.9534,6.7972,2
13340,-0.8727,-0.1472,0.9185,-8.1637,-8.2802,6.1139,2
13360,-0.7465,-0.0069,0.9654,-10.3440,-9.4512,7.8423,2
13380,-0.7537,0.0317,0.8752,-8.6087,-8.2583,5.8961,2
13400,-0.4830,0.2590,0.9778,-7.6622,-6.8499,6.6403,2
13420,-0.0855,0.2334,1.0064,-11.4156,-4.9008,4.9240,2
13440,0.2123,0.3116,1.1481,-10.5384,-1.2616,4.3761,2
13460,0.5661,0.2706,1.0441,-12.0675,0.9334,3.5123,2
13480,0.6166,0.2000,1.1170,-9.4405,1.2462,3.2797,2
13500,0.8226,0.1011,1.0459,-5.0181,2.5544,2.8898,2
13520,0.6940,-0.1716,0.9858,-5.7622,6.2503,3.8664,2
13540,0.5471,-0.1113,0.9528,-1.3800,9.9600,1.7424,2
13560,0.1195,-0.2676,0.9355,-0.7736,8.7146,0.8502,2
13580,-0.1493,-0.2765,0.9384,4.0973,9.1544,0.0660,2
13600,-0.3879,-0.2179,0.9249,2.5117,7.0883,-1.5368,2
13620,-0.6044,-0.1460,0.9534,9.2166,5.3244,-1.8931,2
13640,-0.7623,-0.0878,1.0798,9.2340,5.8119,-3.3409,2
13660,-0.7359,0.0909,1.0762,7.5976,1.7799,-4.6717,2
13680,-0.5190,0.0387,1.0059,12.4670,-1.4591,-4.9924,2
13700,-0.1455,0.2492,1.1037,11.5863,0.0384,-5.2843,2
13720,0.2398,0.2342,0.9697,12.7489,-4.8750,-6.1569,2
13740,0.3549,0.2011,1.0055,7.5705,-5.5705,-6.1341,2
13760,0.5689,0.1888,0.9488,12.4615,-7.2475,-6.0626,2
13780,0.7815,0.0610,0.9075,7.6372,-7.2490,-6.3946,2
13800,0.7635,-0.0044,0.9180,7.0775,-8.1578,-6.0428,2
13820,0.6112,-0.1066,0.9224,4.0333,-5.2455,-6.1829,2
13840,0.2220,-0.1395,0.9181,3.5034,-5.8894,-4.7624,2
13860,-0.1738,-0.1658,1.0276,-0.9635,-1.9127,-5.5429,2
13880,-0.4578,-0.2625,1.0919,-5.7160,-0.3996,-3.2880,2
13900,-0.7247,-0.0676,1.0565,-4.6334,3.4951,-4.3902,2
13920,-0.8019,0.0823,1.0450,-7.2743,5.1578,-5.6716,2
13940,-0.7977,0.0700,1.0181,-5.5764,5.5533,-3.2282,2
13960,-0.5479,0.1521,0.9564,-12.0871,7.0174,-4.9255,2
13980,-0.4209,0.1223,1.0032,-10.7215,8.9430,-2.2903,2
14000,0.0134,0.3335,0.8995,-11.8293,8.5049,-3.0347,2
14020,0.5884,0.2190,0.9283,-9.7000,7.5995,-1.1293,2
14040,0.6268,0.0567,0.9237,-10.0304,5.3159,0.6554,2
14060,0.7652,-0.0291,1.0288,-7.1841,3.6930,0.3913,2
14080,0.8694,0.1745,1.0359,-9.7479,-0.5025,1.8572,2
14100,0.5188,-0.1302,1.0814,-2.9917,-0.6597,2.8596,2
14120,0.2124,-0.1514,1.1082,-2.5748,-6.5313,2.3199,2
14140,-0.0431,-0.3685,1.0682,-1.6534,-3.1088,3.5285,2
14160,-0.1910,-0.3236,1.0138,2.4036,-8.5644,3.9844,2
14180,-0.6006,-0.1793,1.0647,5.3709,-7.4118,5.3373,2
14200,-0.7118,-0.0795,0.9362,7.3203,-6.3605,6.3047,2
14220,-0.8129,0.0792,0.9160,9.0555,-7.3497,5.6626,2
14240,-0.5682,0.1345,0.9282,8.2001,-5.5475,5.9181,2
14260,-0.4950,0.2040,0.9292,11.6515,-2.9389,5.5435,2
14280,-0.1322,0.2431,1.0344,12.3871,-1.4971,6.7147,2
14300,0.3838,0.2869,1.0537,13.0132,3.4731,7.2321,2
14320,0.5930,0.2433,1.0232,8.7537,4.2175,6.2919,2
14340,0.7003,0.1412,1.0055,9.0693,5.3520,4.6849,2
14360,0.9180,-0.1021,1.0445,9.6673,8.0561,4.7601,2
14380,0.7556,-0.0971,1.1278,6.7548,7.7736,4.5160,2
14400,0.4107,-0.2470,1.0448,3.7370,8.5366,5.8768,2
14420,-0.0388,-0.1539,0.9508,1.8254,6.0404,3.4443,2
14440,-0.1598,-0.0798,0.9637,0.5208,5.3188,2.8810,2
14460,-0.5724,-0.2162,0.8408,-5.2247,2.8696,2.4751,2
14480,-0.7133,-0.0790,0.9461,-7.3602,-1.1542,1.3639,2
14500,-0.8778,0.0298,1.0239,-6.9836,-0.3431,0.8944,2
14520,-0.7656,0.0544,0.9719,-8.5450,-3.7967,-0.8362,2
14540,-0.5761,0.1294,1.0684,-9.5826,-6.0029,-2.4843,2
14560,-0.2141,0.2225,1.0710,-12.9093,-6.7974,-1.4607,2
14580,0.1479,0.2622,1.0506,-12.7253,-6.2114,-1.8711,2
14600,0.5364,0.2726,1.0551,-9.9273,-9.8321,-2.9199,2
14620,0.6864,0.2230,1.0266,-11.3376,-6.8125,-3.6601,2
14640,0.8348,-0.0501,0.9626,-9.1127,-5.5612,-5.0189,2
14660,0.6970,-0.0132,0.8814,-8.3094,-4.0474,-5.6248,2
14680,0.4768,-0.1682,0.8628,-6.0302,0.7689,-5.1206,2
14700,0.1875,-0.2015,0.9698,-0.2862,0.6003,-5.0924,2
14720,-0.2633,-0.3057,0.9945,1.2809,2.0369,-5.9494,2
14740,-0.4786,-0.2204,1.0737,4.8022,4.0182,-7.1791,2
14760,-0.7084,-0.1303,1.0407,7.4461,7.2248,-6.0746,2
14780,-0.8950,0.0446,0.9672,9.2702,8.8822,-6.7004,2
14800,-0.6590,0.0701,1.0700,10.2514,11.8081,-5.1234,2
14820,-0.5271,0.1059,1.0394,9.7121,8.4431,-5.8233,2
14840,-0.3845,0.2283,0.9550,12.0294,5.1968,-5.5472,2
14860,0.1103,0.2361,0.9322,12.3193,5.2498,-5.9916,2
14880,0.4063,0.2946,0.9463,11.7154,2.9513,-4.1918,2
14900,0.7075,0.0115,0.8610,12.2998,-2.0576,-3.6014,2
14920,0.7577,-0.0188,0.9615,9.5678,-0.1301,-3.7230,2
14940,0.8901,-0.0371,0.9620,8.6337,-4.1446,-2.4391,2
14960,0.6377,-0.1912,1.0001,6.3245,-6.7994,-1.7335,2
14980,0.3630,-0.2002,1.0101,4.6757,-7.4784,-1.0041,2
15000,0.0345,-0.2249,1.1107,0.8608,-7.1386,1.0808,2
15020,-0.2699,-0.2274,1.0224,0.0508,-7.9091,0.4635,2
15040,-0.7553,-0.1313,1.0391,-7.5335,-5.9868,1.2708,2
15060,-0.5596,-0.0961,0.9711,-8.7545,-3.2900,2.1695,2
15080,-0.8438,0.0902,0.8923,-8.2460,-0.5249,3.6765,2
15100,-0.5962,0.1968,0.9916,-8.7562,0.2763,4.6457,2
15120,-0.4563,0.2600,0.8831,-12.2102,-1.5155,4.8750,2
15140,-0.1017,0.3106,0.9635,-10.1955,3.1129,5.9366,2
15160,0.4630,0.2721,1.0206,-11.5161,5.5981,6.1781,2
15180,0.4627,0.1376,0.9628,-12.1389,8.2270,6.3400,2
15200,0.7649,0.0851,0.9921,-10.3043,7.1666,5.6717,2
15220,0.8417,-0.0852,1.0558,-11.2751,7.4081,5.4842,2
15240,0.6818,-0.1895,1.0712,-6.0125,8.8144,6.7973,2
15260,0.2815,-0.2836,1.0349,-4.8356,1.6526,7.4129,2
15280,0.1579,-0.2048,0.9637,-0.0692,2.2858,6.3209,2
15300,-0.3209,-0.1312,0.8843,3.8489,0.7996,5.4821,2
15320,-0.5343,-0.1280,0.9777,4.9185,-2.7649,5.5327,2
15340,-0.5985,-0.0021,0.9598,8.0181,-3.1461,5.9343,2
15360,-0.8350,-0.0717,0.9510,7.4395,-7.1661,3.8632,2
15380,-0.5022,0.1243,1.0040,8.3731,-9.4724,3.1390,2
15400,-0.3552,0.2156,1.0580,12.5944,-8.6465,4.1936,2
15420,-0.2005,0.3257,1.0855,9.0843,-8.7652,0.8906,2
15440,0.2920,0.2309,0.9909,12.5066,-7.7029,0.3265,2
15460,0.6442,0.1918,1.0550,10.6515,-7.4013,-0.3613,2
15480,0.8267,0.0719,1.0331,6.8610,-5.1688,0.3270,2
15500,0.8302,0.1122,1.0412,8.1161,-0.6839,-1.2545,2
15520,0.8882,-0.0287,0.9535,6.7506,2.9356,-1.3605,2
15540,0.6346,-0.3253,0.9414,3.2402,5.6497,-1.3782,2
15560,0.2016,-0.1342,0.9949,1.6230,8.5155,-3.3862,2
15580,-0.1671,-0.1803,0.9345,-0.9928,8.7259,-4.0331,2
15600,-0.6058,-0.1707,0.9621,-2.3238,8.6937,-3.4883,2
15620,-0.6284,-0.0458,1.0078,-4.8221,10.3052,-5.7522,2
15640,-0.6544,-0.0502,1.0340,-7.7406,8.1399,-4.9173,2
15660,-0.8208,0.1162,1.0526,-12.3072,4.8195,-6.5946,2
15680,-0.5059,0.2487,1.0075,-10.5942,2.6169,-5.7337,2
15700,-0.2970,0.1610,1.0638,-12.7913,1.3660,-8.1476,2
15720,0.1760,0.2906,0.9872,-14.4205,0.7484,-6.9285,2
15740,0.3924,0.3506,0.9182,-10.3360,-2.4102,-5.9960,2
15760,0.6980,0.1527,0.9336,-10.5987,-3.3629,-7.1613,2
15780,0.8754,0.0827,0.9517,-7.2142,-6.8925,-7.3031,2
15800,0.7551,-0.1376,0.9197,-9.0413,-8.3215,-5.8810,2
15820,0.3930,-0.1195,1.0793,-3.7958,-8.2307,-4.9494,2
15840,0.2608,-0.2174,1.0335,-3.5943,-5.4552,-5.5119,2
15860,0.0072,-0.2460,1.1444,0.9223,-6.6910,-3.8617,2
15880,-0.3822,-0.2835,1.0493,0.1284,-5.5626,-2.8662,2
15900,-0.6232,-0.2677,1.0607,6.3493,-2.4274,-2.6750,2
15920,-0.8188,-0.0796,1.0058,7.9272,2.9703,-1.9518,2
15940,-0.8003,0.0564,0.9590,11.2390,-0.2300,-0.9470,2
15960,-0.5509,0.1342,0.9131,11.5631,5.8709,0.4901,2
15980,-0.4047,0.2464,0.9066,12.9033,8.2815,-0.9247,2
16000,0.0089,0.1289,1.0216,11.2510,8.5041,1.9495,2
